time,accel_x,accel_y,accel_z,gyro_x,gyro_y,gyro_z,mag_x,mag_y,mag_z,baro,gps_lat,gps_lon,gps_alt
0.780,-0.0018000,0.0042000,9.6792000,32.7988000,31.2958000,30.7083000,-35.1290000,-6.8510000,7.6760000,0.000000,0,0,0
0.790,-0.0018000,0.0042000,9.6792000,32.7988000,31.2958000,30.7083000,-35.1690000,-6.9490000,8.4790000,0.000000,0,0,0
0.800,-0.0006000,0.0018000,9.6804000,32.8140000,31.2958000,30.7312000,-35.2210000,-6.6850000,7.7660000,0.000000,0,0,0
0.810,0.0006000,0.0018000,9.6816000,32.8293000,31.2881000,30.7388000,-35.2330000,-7.0060000,7.6730000,0.000000,0,0,0
0.820,0.0018000,0.0006000,9.6804000,32.8369000,31.2958000,30.7465000,-35.2330000,-7.0060000,7.6730000,0.000000,0,0,0
0.830,0.0030000,0.0018000,9.6792000,32.8445000,31.3034000,30.7388000,-35.4030000,-7.1050000,8.2860000,0.000000,0,0,0
0.840,0.0018000,0.0018000,9.6792000,32.8522000,31.3034000,30.7388000,-34.5680000,-7.0850000,8.6850000,0.000000,0,0,0
0.850,0.0018000,0.0030000,9.6792000,32.8674000,31.2958000,30.7312000,-35.2190000,-6.8770000,8.2540000,0.000000,0,0,0
0.860,0.0006000,0.0018000,9.6804000,32.8903000,31.2881000,30.7312000,-35.4620000,-6.6270000,8.3090000,0.000000,0,0,0
0.870,0.0006000,0.0018000,9.6804000,32.9361000,31.2805000,30.7236000,-35.5340000,-6.8630000,8.5250000,0.000000,0,0,0
0.880,0.0006000,0.0006000,9.6804000,32.9819000,31.2729000,30.7312000,-35.1670000,-6.7970000,9.1380000,0.000000,0,0,0
0.890,-0.0006000,0.0030000,9.6792000,33.0200000,31.2653000,30.7312000,-35.5700000,-7.2010000,8.4110000,0.000000,0,0,0
0.900,-0.0018000,0.0054000,9.6768000,33.0429000,31.2424000,30.7312000,-35.4700000,-6.6420000,8.4870000,0.000000,0,0,0
0.910,-0.0018000,0.0054000,9.6756000,33.0505000,31.2576000,30.7388000,-35.3260000,-6.5250000,7.8950000,0.000000,0,0,0
0.920,-0.0006000,0.0066000,9.6744000,33.0200000,31.3110000,30.7388000,-35.6010000,-6.3920000,8.4840000,0.000000,0,0,0
0.930,0.0006000,0.0078000,9.6732000,32.9819000,31.3568000,30.7312000,-35.2770000,-7.0070000,9.0230000,0.000000,0,0,0
0.940,0.0018000,0.0078000,9.6720000,32.9590000,31.3797000,30.7312000,-35.5850000,-6.7340000,9.3400000,0.000000,0,0,0
0.950,0.0018000,0.0066000,9.6732000,32.9666000,31.3873000,30.7236000,-35.1650000,-6.8080000,8.7850000,0.000000,0,0,0
0.960,0.0030000,0.0054000,9.6744000,32.9895000,31.3950000,30.7159000,-35.4240000,-6.9100000,8.2310000,0.000000,0,0,0
0.970,0.0030000,0.0042000,9.6756000,33.0048000,31.4026000,30.7083000,-35.5960000,-6.9970000,8.2300000,0.000000,0,0,0
0.980,0.0030000,0.0042000,9.6756000,33.0200000,31.4026000,30.7159000,-35.1970000,-6.5830000,8.4260000,0.000000,0,0,0
0.990,0.0018000,0.0042000,9.6744000,33.0200000,31.3873000,30.7083000,-35.5220000,-6.7510000,8.6360000,0.000000,0,0,0
1.000,0.0006000,0.0042000,9.6744000,32.9971000,31.3797000,30.7159000,-35.4260000,-6.4960000,8.8020000,0.000000,0,0,0
1.010,0.0006000,0.0042000,9.6756000,32.9742000,31.3797000,30.7159000,-35.4340000,-6.8420000,8.2540000,0.000000,0,0,0
1.020,0.0006000,0.0030000,9.6768000,32.9514000,31.3797000,30.7236000,-35.5510000,-6.5580000,7.9120000,0.000000,0,0,0
1.030,0.0006000,0.0018000,9.6780000,32.9437000,31.3797000,30.7236000,-35.6580000,-6.9600000,7.6280000,0.000000,0,0,0
1.040,0.0018000,0.0006000,9.6780000,32.9361000,31.3950000,30.7312000,-35.5780000,-6.7640000,7.5470000,0.000000,0,0,0
1.050,0.0006000,0.0006000,9.6768000,32.9361000,31.4102000,30.7312000,-35.7860000,-6.8650000,7.4390000,0.000000,0,0,0
1.060,0.0006000,0.0018000,9.6744000,32.9437000,31.4178000,30.7236000,-35.5300000,-6.6500000,7.5500000,0.000000,0,0,0
1.070,-0.0006000,0.0030000,9.6744000,32.9514000,31.4102000,30.7312000,-35.5050000,-6.7060000,7.7930000,0.000000,0,0,0
1.080,-0.0018000,0.0030000,9.6768000,32.9590000,31.4026000,30.7312000,-35.3690000,-6.5970000,7.6250000,0.000000,0,0,0
1.090,-0.0006000,0.0042000,9.6780000,32.9742000,31.4026000,30.7388000,-35.7900000,-6.4730000,8.5210000,0.000000,0,0,0
1.100,-0.0006000,0.0066000,9.6780000,32.9819000,31.4102000,30.7312000,-35.2990000,-6.4620000,8.5250000,0.000000,0,0,0
1.110,-0.0006000,0.0102000,9.6768000,32.9742000,31.4102000,30.7312000,-35.5350000,-6.9370000,8.0600000,0.000000,0,0,0
1.120,-0.0018000,0.0126000,9.6744000,32.9437000,31.4102000,30.7236000,-35.2770000,-6.4680000,8.4420000,0.000000,0,0,0
1.130,-0.0042000,0.0138000,9.6732000,32.9056000,31.4026000,30.7236000,-35.3040000,-6.9620000,7.9460000,0.000000,0,0,0
1.140,-0.0042000,0.0126000,9.6720000,32.8674000,31.4026000,30.7236000,-35.2920000,-6.9150000,8.4580000,0.000000,0,0,0
1.150,-0.0042000,0.0102000,9.6732000,32.8369000,31.3950000,30.7236000,-35.4350000,-7.0290000,8.1330000,0.000000,0,0,0
1.160,-0.0018000,0.0078000,9.6744000,32.8293000,31.3873000,30.7236000,-35.4460000,-6.6730000,8.0810000,0.000000,0,0,0
1.170,-0.0006000,0.0054000,9.6756000,32.8445000,31.3950000,30.7236000,-35.4600000,-6.5230000,7.8520000,0.000000,0,0,0
1.180,-0.0006000,0.0042000,9.6768000,32.8751000,31.3950000,30.7159000,-35.5770000,-6.8490000,7.8060000,0.000000,0,0,0
1.190,-0.0018000,0.0066000,9.6780000,32.9285000,31.3797000,30.7159000,-35.4770000,-6.7500000,7.8940000,0.000000,0,0,0
1.200,-0.0006000,0.0090000,9.6792000,32.9590000,31.3644000,30.7236000,-35.3970000,-6.3590000,7.6400000,0.000000,0,0,0
1.210,-0.0006000,0.0114000,9.6792000,32.9742000,31.3492000,30.7236000,-35.3810000,-6.6520000,8.1420000,0.000000,0,0,0
1.220,0.0006000,0.0114000,9.6804000,32.9895000,31.3339000,30.7236000,-35.5350000,-6.4190000,7.8470000,0.000000,0,0,0
1.230,0.0006000,0.0102000,9.6816000,32.9971000,31.3263000,30.7236000,-35.4340000,-6.7200000,7.7540000,0.000000,0,0,0
1.240,-0.0006000,0.0090000,9.6828000,32.9819000,31.3110000,30.7236000,-35.6580000,-6.8440000,7.5470000,0.000000,0,0,0
1.250,-0.0018000,0.0078000,9.6816000,32.9514000,31.2958000,30.7236000,-35.5010000,-7.0250000,7.8130000,0.000000,0,0,0
1.260,-0.0018000,0.0078000,9.6804000,32.9285000,31.2958000,30.7159000,-35.7690000,-6.8260000,7.5470000,0.000000,0,0,0
1.270,-0.0018000,0.0066000,9.6804000,32.9056000,31.2881000,30.7159000,-35.7130000,-6.7130000,7.6390000,0.000000,0,0,0
1.280,-0.0030000,0.0066000,9.6816000,32.8903000,31.2881000,30.7312000,-35.5820000,-6.5380000,7.6700000,0.000000,0,0,0
1.290,-0.0030000,0.0078000,9.6816000,32.8903000,31.2805000,30.7312000,-35.7510000,-6.4490000,7.6940000,0.000000,0,0,0
1.300,-0.0030000,0.0090000,9.6792000,32.8979000,31.2805000,30.7312000,-35.8630000,-6.4470000,7.8620000,0.000000,0,0,0
1.310,-0.0018000,0.0090000,9.6768000,32.8979000,31.2881000,30.7312000,-35.8920000,-6.5260000,7.7410000,0.000000,0,0,0
1.320,-0.0018000,0.0102000,9.6768000,32.8979000,31.2958000,30.7236000,-35.8040000,-6.7470000,7.8310000,0.000000,0,0,0
1.330,-0.0018000,0.0102000,9.6780000,32.9056000,31.3034000,30.7236000,-35.9100000,-6.8890000,7.6130000,0.000000,0,0,0
1.340,-0.0018000,0.0102000,9.6780000,32.9056000,31.3110000,30.7236000,-35.5750000,-6.5370000,8.1820000,0.000000,0,0,0
1.350,-0.0018000,0.0090000,9.6780000,32.9056000,31.3034000,30.7236000,-35.5460000,-6.2430000,7.9310000,0.000000,0,0,0
1.360,-0.0006000,0.0078000,9.6780000,32.8979000,31.2958000,30.7312000,-35.7270000,-6.7830000,8.3630000,0.000000,0,0,0
1.370,-0.0006000,0.0090000,9.6792000,32.8903000,31.2805000,30.7312000,-35.6610000,-6.7250000,8.1820000,0.000000,0,0,0
1.380,-0.0006000,0.0090000,9.6792000,32.8827000,31.2805000,30.7236000,-35.7500000,-6.7140000,8.2470000,0.000000,0,0,0
1.390,-0.0006000,0.0090000,9.6780000,32.8903000,31.2958000,30.7312000,-35.7730000,-6.9160000,8.5270000,0.000000,0,0,0
1.400,-0.0018000,0.0102000,9.6780000,32.8979000,31.3339000,30.7312000,-35.6850000,-6.9210000,8.2630000,0.000000,0,0,0
1.410,-0.0030000,0.0114000,9.6768000,32.9132000,31.3568000,30.7236000,-35.6500000,-6.8080000,8.2330000,0.000000,0,0,0
1.420,-0.0042000,0.0126000,9.6780000,32.9285000,31.3797000,30.7312000,-35.5860000,-7.1020000,8.5580000,0.000000,0,0,0
1.430,-0.0030000,0.0126000,9.6768000,32.9514000,31.3873000,30.7312000,-35.5600000,-6.6380000,7.8230000,0.000000,0,0,0
1.440,-0.0018000,0.0138000,9.6744000,32.9437000,31.3873000,30.7388000,-35.5290000,-6.5410000,8.4600000,0.000000,0,0,0
1.450,-0.0006000,0.0114000,9.6744000,32.8979000,31.4026000,30.7312000,-35.8080000,-7.0090000,8.5490000,0.000000,0,0,0
1.460,0.0006000,0.0102000,9.6756000,32.8445000,31.4102000,30.7312000,-35.7820000,-6.7450000,8.4820000,0.000000,0,0,0
1.470,-0.0006000,0.0090000,9.6756000,32.7835000,31.4255000,30.7236000,-35.9540000,-6.7250000,7.6280000,0.000000,0,0,0
1.480,-0.0030000,0.0078000,9.6756000,32.7301000,31.4102000,30.7083000,-35.7550000,-6.7260000,8.4150000,0.000000,0,0,0
1.490,-0.0078000,0.0066000,9.6756000,32.6767000,31.3644000,30.6931000,-35.8180000,-6.7100000,7.7110000,0.000000,0,0,0
1.500,-0.0090000,0.0054000,9.6792000,32.6691000,31.3339000,30.6931000,-35.6020000,-6.3360000,8.4880000,0.000000,0,0,0
1.510,-0.0066000,0.0054000,9.6792000,32.6996000,31.3034000,30.6931000,-35.7910000,-6.5890000,8.2330000,0.000000,0,0,0
1.520,-0.0042000,0.0054000,9.6780000,32.7454000,31.2881000,30.7007000,-35.6970000,-6.7250000,8.2340000,0.000000,0,0,0
1.530,-0.0030000,0.0054000,9.6768000,32.7835000,31.2805000,30.7083000,-35.8450000,-6.5660000,8.3480000,0.000000,0,0,0
1.540,-0.0018000,0.0030000,9.6780000,32.8140000,31.2653000,30.7083000,-35.6580000,-6.6440000,8.4330000,0.000000,0,0,0
1.550,-0.0006000,0.0030000,9.6792000,32.8369000,31.2653000,30.7083000,-35.9870000,-6.9580000,8.0430000,0.000000,0,0,0
1.560,-0.0006000,0.0054000,9.6768000,32.8522000,31.2653000,30.7083000,-35.7470000,-6.6670000,7.8380000,0.000000,0,0,0
1.570,-0.0006000,0.0078000,9.6744000,32.8445000,31.2729000,30.7083000,-35.7320000,-6.6090000,8.4450000,0.000000,0,0,0
1.580,0.0006000,0.0090000,9.6756000,32.8293000,31.2881000,30.7083000,-35.7980000,-6.8110000,8.5930000,0.000000,0,0,0
1.590,0.0006000,0.0102000,9.6768000,32.8217000,31.3034000,30.7159000,-35.8400000,-6.7680000,9.2470000,0.000000,0,0,0
1.600,-0.0006000,0.0102000,9.6768000,32.8140000,31.3187000,30.7159000,-35.7850000,-6.8710000,8.1090000,0.000000,0,0,0
1.610,-0.0018000,0.0066000,9.6756000,32.8217000,31.3187000,30.7236000,-35.6750000,-7.2130000,8.1390000,0.000000,0,0,0
1.620,-0.0018000,0.0042000,9.6768000,32.8293000,31.3187000,30.7236000,-35.6490000,-6.6990000,8.5760000,0.000000,0,0,0
1.630,-0.0030000,0.0042000,9.6792000,32.8445000,31.3034000,30.7236000,-35.5890000,-6.9110000,8.3480000,0.000000,0,0,0
1.640,-0.0030000,0.0054000,9.6792000,32.8522000,31.3034000,30.7236000,-35.6460000,-6.9630000,8.1300000,0.000000,0,0,0
1.650,-0.0042000,0.0066000,9.6792000,32.8369000,31.3034000,30.7236000,-35.5470000,-6.5810000,8.5510000,0.000000,0,0,0
1.660,-0.0054000,0.0066000,9.6804000,32.8217000,31.3034000,30.7236000,-35.5620000,-6.5680000,7.8390000,0.000000,0,0,0
1.670,-0.0054000,0.0066000,9.6816000,32.8140000,31.3034000,30.7236000,-35.6030000,-6.8830000,8.5240000,0.000000,0,0,0
1.680,-0.0042000,0.0066000,9.6804000,32.8140000,31.3034000,30.7236000,-35.8580000,-7.1100000,7.9600000,0.000000,0,0,0
1.690,-0.0030000,0.0066000,9.6768000,32.8217000,31.3034000,30.7236000,-35.7230000,-6.6720000,8.3410000,0.000000,0,0,0
1.700,-0.0018000,0.0078000,9.6756000,32.8293000,31.3110000,30.7236000,-35.6990000,-6.8850000,8.4320000,0.000000,0,0,0
1.710,-0.0018000,0.0078000,9.6780000,32.8293000,31.3263000,30.7236000,-35.6410000,-7.0790000,8.2030000,0.000000,0,0,0
1.720,-0.0006000,0.0078000,9.6768000,32.8293000,31.3339000,30.7236000,-35.5180000,-6.8320000,7.9710000,0.000000,0,0,0
1.730,-0.0006000,0.0090000,9.6744000,32.8293000,31.3339000,30.7236000,-35.6650000,-7.0660000,8.8830000,0.000000,0,0,0
1.740,-0.0006000,0.0078000,9.6732000,32.8140000,31.3492000,30.7236000,-35.4870000,-6.8740000,8.6400000,0.000000,0,0,0
1.750,0.0006000,0.0054000,9.6744000,32.8064000,31.3644000,30.7159000,-35.7720000,-7.3190000,8.1830000,0.000000,0,0,0
1.760,0.0018000,0.0042000,9.6744000,32.8064000,31.3797000,30.7159000,-35.5820000,-6.9400000,8.0320000,0.000000,0,0,0
1.770,0.0018000,0.0018000,9.6756000,32.8064000,31.3797000,30.7159000,-35.9490000,-6.4900000,7.9990000,0.000000,0,0,0
1.780,0.0018000,0.0018000,9.6756000,32.8064000,31.3797000,30.7083000,-35.8760000,-6.8130000,7.9210000,0.000000,0,0,0
1.790,0.0018000,0.0030000,9.6780000,32.8064000,31.3568000,30.7083000,-35.5250000,-6.8540000,8.0110000,0.000000,0,0,0
1.800,0.0018000,0.0030000,9.6816000,32.8217000,31.3416000,30.7159000,-36.1290000,-6.6280000,8.1940000,0.000000,0,0,0
1.810,0.0006000,0.0030000,9.6804000,32.8369000,31.3339000,30.7236000,-35.7170000,-6.8390000,8.1470000,0.000000,0,0,0
1.820,-0.0018000,0.0018000,9.6792000,32.8445000,31.3263000,30.7236000,-35.6080000,-7.0170000,7.6300000,0.000000,0,0,0
1.830,-0.0030000,0.0006000,9.6792000,32.8522000,31.3110000,30.7312000,-35.4770000,-7.0430000,8.0990000,0.000000,0,0,0
1.840,-0.0030000,0.0018000,9.6780000,32.8522000,31.3034000,30.7312000,-35.7490000,-7.0070000,8.1440000,0.000000,0,0,0
1.850,-0.0018000,0.0042000,9.6756000,32.8522000,31.3034000,30.7312000,-35.7190000,-6.9200000,8.4130000,0.000000,0,0,0
1.860,-0.0006000,0.0066000,9.6744000,32.8445000,31.3187000,30.7312000,-35.6390000,-6.7180000,8.6080000,0.000000,0,0,0
1.870,0.0006000,0.0066000,9.6756000,32.8445000,31.3339000,30.7236000,-35.8420000,-6.7720000,8.7880000,0.000000,0,0,0
1.880,0.0006000,0.0054000,9.6780000,32.8445000,31.3416000,30.7236000,-35.7860000,-7.0960000,8.6820000,0.000000,0,0,0
1.890,0.0006000,0.0054000,9.6780000,32.8445000,31.3568000,30.7236000,-35.7040000,-7.0920000,8.1240000,0.000000,0,0,0
1.900,-0.0006000,0.0042000,9.6780000,32.8445000,31.3797000,30.7236000,-35.6240000,-6.9890000,7.8520000,0.000000,0,0,0
1.910,-0.0006000,0.0030000,9.6780000,32.8369000,31.4102000,30.7236000,-35.5480000,-6.9990000,8.3810000,0.000000,0,0,0
1.920,-0.0030000,0.0030000,9.6780000,32.8369000,31.4255000,30.7236000,-35.4380000,-6.8100000,7.6350000,0.000000,0,0,0
1.930,-0.0054000,0.0030000,9.6780000,32.8369000,31.4331000,30.7236000,-35.4650000,-6.7650000,7.9640000,0.000000,0,0,0
1.940,-0.0054000,0.0018000,9.6780000,32.8445000,31.4178000,30.7159000,-35.3210000,-6.6350000,8.5580000,0.000000,0,0,0
1.950,-0.0066000,0.0018000,9.6792000,32.8598000,31.4026000,30.7159000,-35.3840000,-6.9420000,8.0360000,0.000000,0,0,0
1.960,-0.0054000,0.0018000,9.6792000,32.8827000,31.3873000,30.7236000,-35.1260000,-6.5400000,8.3280000,0.000000,0,0,0
1.970,-0.0042000,0.0006000,9.6780000,32.9056000,31.3721000,30.7236000,-35.4650000,-6.8870000,7.6910000,0.000000,0,0,0
1.980,-0.0030000,0.0006000,9.6768000,32.9132000,31.3568000,30.7236000,-35.7590000,-6.8100000,7.9810000,0.000000,0,0,0
1.990,-0.0030000,0.0006000,9.6768000,32.9056000,31.3568000,30.7236000,-35.6920000,-6.7550000,8.4110000,0.000000,0,0,0
2.000,-0.0042000,0.0018000,9.6780000,32.8979000,31.3644000,30.7236000,-35.6980000,-6.9130000,8.2530000,0.000000,0,0,0
2.010,-0.0054000,0.0030000,9.6780000,32.8751000,31.3644000,30.7236000,-35.7700000,-6.9420000,8.0320000,0.000000,0,0,0
2.020,-0.0054000,0.0030000,9.6780000,32.8598000,31.3721000,30.7312000,-35.8570000,-7.2240000,7.9690000,0.000000,0,0,0
2.030,-0.0042000,0.0030000,9.6768000,32.8445000,31.3644000,30.7236000,-35.6450000,-6.8020000,7.1100000,0.000000,0,0,0
2.040,-0.0030000,0.0030000,9.6768000,32.8140000,31.3568000,30.7236000,-35.9400000,-7.2000000,7.0810000,0.000000,0,0,0
2.050,-0.0030000,0.0006000,9.6768000,32.7911000,31.3339000,30.7159000,-35.5630000,-6.8630000,8.1220000,0.000000,0,0,0
2.060,-0.0018000,-0.0018000,9.6744000,32.7911000,31.3187000,30.7083000,-35.7690000,-6.8190000,7.9870000,0.000000,0,0,0
2.070,-0.0006000,-0.0006000,9.6744000,32.7988000,31.3187000,30.7007000,-35.2840000,-6.8770000,7.9900000,0.000000,0,0,0
2.080,0.0006000,0.0018000,9.6768000,32.8064000,31.3263000,30.7083000,-35.4030000,-6.5940000,7.9400000,0.000000,0,0,0
2.090,-0.0006000,0.0066000,9.6768000,32.8217000,31.3339000,30.7083000,-36.0150000,-6.7420000,8.8650000,0.000000,0,0,0
2.100,-0.0018000,0.0090000,9.6768000,32.8369000,31.3492000,30.7083000,-35.7370000,-6.8590000,8.2810000,0.000000,0,0,0
2.110,-0.0030000,0.0090000,9.6768000,32.8522000,31.3492000,30.7159000,-35.7740000,-6.9900000,7.8340000,0.000000,0,0,0
2.120,-0.0018000,0.0066000,9.6756000,32.8979000,31.3873000,30.7312000,-35.8760000,-7.2140000,7.8570000,0.000000,0,0,0
2.130,-0.0018000,0.0054000,9.6756000,32.9285000,31.4102000,30.7465000,-35.9400000,-6.9690000,8.5570000,0.000000,0,0,0
2.140,-0.0030000,0.0030000,9.6756000,32.9514000,31.4178000,30.7465000,-35.8170000,-6.8330000,8.2860000,0.000000,0,0,0
2.150,-0.0042000,0.0018000,9.6756000,32.9514000,31.4102000,30.7465000,-35.7220000,-6.6930000,7.7520000,0.000000,0,0,0
2.160,-0.0054000,0.0018000,9.6756000,32.9437000,31.4026000,30.7465000,-35.7170000,-6.5730000,7.7920000,0.000000,0,0,0
2.170,-0.0066000,0.0030000,9.6756000,32.9132000,31.3873000,30.7388000,-35.6490000,-6.9440000,7.9680000,0.000000,0,0,0
2.180,-0.0066000,0.0042000,9.6768000,32.8751000,31.3644000,30.7312000,-35.8120000,-6.8620000,7.4110000,0.000000,0,0,0
2.190,-0.0066000,0.0054000,9.6792000,32.8445000,31.3492000,30.7236000,-35.7240000,-6.9240000,8.0920000,0.000000,0,0,0
2.200,-0.0066000,0.0042000,9.6792000,32.8293000,31.3416000,30.7159000,-35.6380000,-6.3560000,7.8340000,0.000000,0,0,0
2.210,-0.0078000,0.0042000,9.6768000,32.8445000,31.3339000,30.7159000,-36.1710000,-6.5610000,7.3330000,0.000000,0,0,0
2.220,-0.0078000,0.0030000,9.6768000,32.8751000,31.3187000,30.7083000,-35.8700000,-7.0430000,8.5390000,0.000000,0,0,0
2.230,-0.0066000,0.0030000,9.6780000,32.8903000,31.3034000,30.6931000,-36.0720000,-7.2240000,8.5480000,0.000000,0,0,0
2.240,-0.0054000,0.0006000,9.6780000,32.8979000,31.3110000,30.6854000,-35.9030000,-7.2130000,8.5170000,0.000000,0,0,0
2.250,-0.0042000,0.0006000,9.6732000,32.9056000,31.3263000,30.6931000,-35.8630000,-6.9490000,8.2980000,0.000000,0,0,0
2.260,-0.0054000,0.0018000,9.6696000,32.9208000,31.3492000,30.6931000,-35.4790000,-7.0090000,8.1640000,0.000000,0,0,0
2.270,-0.0054000,0.0054000,9.6708000,32.9285000,31.3721000,30.7007000,-35.6300000,-6.9100000,8.2680000,0.000000,0,0,0
2.280,-0.0066000,0.0078000,9.6732000,32.9285000,31.3873000,30.7007000,-35.8210000,-6.8560000,8.0600000,0.000000,0,0,0
2.290,-0.0066000,0.0090000,9.6744000,32.9285000,31.4026000,30.7007000,-35.7920000,-6.8000000,8.3720000,0.000000,0,0,0
2.300,-0.0066000,0.0078000,9.6744000,32.9285000,31.4178000,30.7007000,-35.5960000,-6.8460000,8.6040000,0.000000,0,0,0
2.310,-0.0066000,0.0054000,9.6768000,32.9285000,31.4102000,30.7083000,-35.9300000,-6.8940000,8.4990000,0.000000,0,0,0
2.320,-0.0054000,0.0030000,9.6804000,32.9208000,31.3950000,30.7083000,-35.7100000,-7.0760000,8.7210000,0.000000,0,0,0
2.330,-0.0054000,0.0018000,9.6816000,32.9208000,31.3873000,30.7083000,-35.7140000,-6.9500000,7.8150000,0.000000,0,0,0
2.340,-0.0042000,0.0006000,9.6792000,32.9285000,31.3797000,30.7083000,-35.6260000,-7.1210000,7.7580000,0.000000,0,0,0
2.350,-0.0042000,0.0006000,9.6768000,32.9437000,31.3644000,30.7159000,-35.8920000,-7.0370000,8.6010000,0.000000,0,0,0
2.360,-0.0054000,0.0018000,9.6768000,32.9514000,31.3568000,30.7159000,-35.8450000,-6.9020000,8.2990000,0.000000,0,0,0
2.370,-0.0054000,0.0030000,9.6780000,32.9590000,31.3644000,30.7159000,-35.8490000,-6.8710000,8.4020000,0.000000,0,0,0
2.380,-0.0054000,0.0042000,9.6780000,32.9666000,31.3797000,30.7236000,-35.7900000,-7.0330000,8.7190000,0.000000,0,0,0
2.390,-0.0042000,0.0054000,9.6780000,32.9666000,31.3950000,30.7236000,-35.6620000,-7.2360000,8.6730000,0.000000,0,0,0
2.400,-0.0054000,0.0054000,9.6792000,32.9666000,31.4026000,30.7236000,-35.5310000,-6.9750000,8.5060000,0.000000,0,0,0
2.410,-0.0066000,0.0042000,9.6804000,32.9742000,31.4026000,30.7236000,-36.1420000,-7.0070000,7.8360000,0.000000,0,0,0
2.420,-0.0054000,0.0042000,9.6780000,32.9819000,31.3950000,30.7312000,-35.8730000,-6.8380000,8.6700000,0.000000,0,0,0
2.430,-0.0054000,0.0042000,9.6768000,32.9819000,31.3950000,30.7388000,-36.1290000,-7.1380000,8.3110000,0.000000,0,0,0
2.440,-0.0054000,0.0054000,9.6780000,32.9819000,31.3950000,30.7388000,-35.8280000,-6.9070000,8.4170000,0.000000,0,0,0
2.450,-0.0042000,0.0066000,9.6792000,32.9819000,31.3950000,30.7388000,-35.7980000,-7.1790000,8.5600000,0.000000,0,0,0
2.460,-0.0042000,0.0078000,9.6780000,32.9819000,31.4026000,30.7312000,-35.7250000,-7.0410000,8.4060000,0.000000,0,0,0
2.470,-0.0030000,0.0090000,9.6768000,32.9819000,31.4178000,30.7312000,-35.8010000,-7.2320000,8.6140000,0.000000,0,0,0
2.480,-0.0030000,0.0090000,9.6756000,32.9895000,31.4255000,30.7312000,-35.6820000,-7.0420000,8.0200000,0.000000,0,0,0
2.490,-0.0030000,0.0090000,9.6768000,32.9971000,31.4407000,30.7236000,-35.7730000,-6.7800000,8.4440000,0.000000,0,0,0
2.500,-0.0042000,0.0090000,9.6780000,32.9971000,31.4407000,30.7236000,-35.6500000,-6.9140000,8.8080000,0.000000,0,0,0
2.510,-0.0054000,0.0078000,9.6780000,33.0048000,31.4407000,30.7236000,-35.6260000,-6.8040000,8.3770000,0.000000,0,0,0
2.520,-0.0066000,0.0090000,9.6780000,33.0048000,31.4331000,30.7236000,-35.4990000,-6.9210000,7.9300000,0.000000,0,0,0
2.530,-0.0078000,0.0102000,9.6792000,32.9971000,31.4331000,30.7236000,-35.8280000,-7.1160000,8.8780000,0.000000,0,0,0
2.540,-0.0090000,0.0114000,9.6792000,32.9971000,31.4407000,30.7236000,-35.6750000,-7.2060000,8.1110000,0.000000,0,0,0
2.550,-0.0102000,0.0138000,9.6780000,32.9895000,31.4484000,30.7312000,-35.7200000,-7.1070000,8.6550000,0.000000,0,0,0
2.560,-0.0102000,0.0150000,9.6768000,32.9819000,31.4484000,30.7312000,-36.0390000,-6.8100000,8.8610000,0.000000,0,0,0
2.570,-0.0102000,0.0150000,9.6768000,32.9666000,31.4407000,30.7312000,-35.9730000,-6.8800000,8.7950000,0.000000,0,0,0
2.580,-0.0102000,0.0150000,9.6780000,32.9514000,31.4255000,30.7312000,-35.8310000,-6.8170000,8.2000000,0.000000,0,0,0
2.590,-0.0114000,0.0161000,9.6792000,32.9514000,31.4102000,30.7312000,-36.1070000,-6.9500000,8.7670000,0.000000,0,0,0
2.600,-0.0114000,0.0150000,9.6804000,32.9437000,31.3797000,30.7312000,-35.8080000,-6.9370000,8.2800000,0.000000,0,0,0
2.610,-0.0102000,0.0126000,9.6816000,32.9208000,31.3568000,30.7312000,-35.8730000,-6.8730000,8.2370000,0.000000,0,0,0
2.620,-0.0102000,0.0114000,9.6816000,32.9132000,31.3492000,30.7312000,-35.8110000,-7.0780000,8.2490000,0.000000,0,0,0
2.630,-0.0102000,0.0102000,9.6792000,32.8903000,31.3644000,30.7236000,-35.9010000,-6.9800000,7.9690000,0.000000,0,0,0
2.640,-0.0102000,0.0102000,9.6780000,32.8751000,31.3721000,30.7312000,-35.9100000,-6.9970000,7.8610000,0.000000,0,0,0
2.650,-0.0102000,0.0114000,9.6768000,32.8522000,31.3797000,30.7312000,-35.9120000,-6.7980000,7.4740000,0.000000,0,0,0
2.660,-0.0090000,0.0126000,9.6780000,32.8293000,31.3721000,30.7236000,-35.8620000,-6.8270000,7.8280000,0.000000,0,0,0
2.670,-0.0090000,0.0150000,9.6756000,32.7835000,31.3492000,30.7236000,-35.7530000,-7.1400000,7.9410000,0.000000,0,0,0
2.680,-0.0102000,0.0161000,9.6744000,32.7225000,31.3263000,30.7159000,-35.6640000,-7.0010000,8.2670000,0.000000,0,0,0
2.690,-0.0102000,0.0138000,9.6756000,32.6920000,31.2881000,30.7083000,-35.9750000,-7.1620000,8.0850000,0.000000,0,0,0
2.700,-0.0102000,0.0114000,9.6804000,32.6996000,31.2424000,30.7159000,-35.6370000,-6.5860000,8.1430000,0.000000,0,0,0
2.710,-0.0102000,0.0078000,9.6816000,32.7377000,31.1966000,30.7159000,-35.8460000,-6.7600000,8.4710000,0.000000,0,0,0
2.720,-0.0090000,0.0042000,9.6804000,32.8064000,31.1584000,30.7312000,-35.5960000,-7.0190000,9.2820000,0.000000,0,0,0
2.730,-0.0090000,0.0018000,9.6816000,32.8979000,31.1279000,30.7388000,-35.7880000,-6.6730000,8.6900000,0.000000,0,0,0
2.740,-0.0078000,0.0006000,9.6840000,32.9971000,31.0974000,30.7388000,-35.7860000,-6.8720000,8.1250000,0.000000,0,0,0
2.750,-0.0054000,-0.0006000,9.6840000,33.0811000,31.0822000,30.7312000,-36.1500000,-6.9070000,8.3820000,0.000000,0,0,0
2.760,-0.0042000,0.0006000,9.6792000,33.1116000,31.0898000,30.7236000,-35.8450000,-6.8740000,8.1040000,0.000000,0,0,0
2.770,-0.0030000,0.0054000,9.6756000,33.1039000,31.1279000,30.7159000,-36.0120000,-6.9990000,7.6090000,0.000000,0,0,0
2.780,-0.0030000,0.0102000,9.6756000,33.0582000,31.1890000,30.7159000,-35.8980000,-6.8850000,8.2080000,0.000000,0,0,0
2.790,-0.0042000,0.0126000,9.6768000,33.0124000,31.2500000,30.7083000,-35.9230000,-6.8080000,7.5790000,0.000000,0,0,0
2.800,-0.0054000,0.0138000,9.6768000,32.9742000,31.2881000,30.7083000,-35.6850000,-6.9930000,7.6940000,0.000000,0,0,0
2.810,-0.0054000,0.0138000,9.6768000,32.9514000,31.3034000,30.7159000,-35.4660000,-7.0890000,8.4180000,0.000000,0,0,0
2.820,-0.0054000,0.0126000,9.6780000,32.9514000,31.3034000,30.7236000,-35.4850000,-6.9710000,8.2980000,0.000000,0,0,0
2.830,-0.0054000,0.0114000,9.6768000,32.9437000,31.3110000,30.7312000,-35.6190000,-7.1710000,8.2340000,0.000000,0,0,0
2.840,-0.0066000,0.0114000,9.6732000,32.9056000,31.3416000,30.7312000,-35.7860000,-6.7000000,8.3880000,0.000000,0,0,0
2.850,-0.0078000,0.0126000,9.6720000,32.8522000,31.3797000,30.7312000,-35.6450000,-6.4570000,8.1600000,0.000000,0,0,0
2.860,-0.0102000,0.0138000,9.6732000,32.8064000,31.4102000,30.7312000,-35.9170000,-6.7600000,7.9990000,0.000000,0,0,0
2.870,-0.0114000,0.0138000,9.6768000,32.7988000,31.3950000,30.7312000,-36.4290000,-6.6490000,8.3400000,0.000000,0,0,0
2.880,-0.0102000,0.0126000,9.6768000,32.8140000,31.2958000,30.7159000,-36.1120000,-6.6170000,8.1310000,0.000000,0,0,0
2.890,-0.0078000,0.0102000,9.6768000,32.8598000,31.1966000,30.7083000,-36.0010000,-7.1530000,8.1350000,0.000000,0,0,0
2.900,-0.0078000,0.0078000,9.6792000,32.9361000,31.1050000,30.7083000,-35.7310000,-6.9390000,8.4390000,0.000000,0,0,0
2.910,-0.0042000,0.0078000,9.6828000,33.0582000,31.0669000,30.7236000,-35.9370000,-6.9160000,8.6550000,0.000000,0,0,0
2.920,-0.0042000,0.0102000,9.6804000,33.1268000,31.0822000,30.7312000,-35.7890000,-6.9680000,7.8420000,0.000000,0,0,0
2.930,-0.0042000,0.0138000,9.6744000,33.1345000,31.0593000,30.7236000,-36.0350000,-6.9270000,7.8590000,0.000000,0,0,0
2.940,-0.0042000,0.0161000,9.6732000,33.1268000,31.0059000,30.7159000,-36.1090000,-6.8300000,7.9120000,0.000000,0,0,0
2.950,-0.0018000,0.0161000,9.6804000,33.1421000,31.0440000,30.7159000,-36.0780000,-6.8770000,8.0380000,0.000000,0,0,0
2.960,0.0006000,0.0138000,9.6852000,33.1726000,31.1356000,30.7236000,-35.7930000,-7.0300000,8.3320000,0.000000,0,0,0
2.970,0.0006000,0.0114000,9.6816000,33.2108000,31.2271000,30.7312000,-36.0850000,-6.9420000,7.9020000,0.000000,0,0,0
2.980,0.0006000,0.0114000,9.6768000,33.2489000,31.2805000,30.7388000,-35.7150000,-6.9940000,8.6640000,0.000000,0,0,0
2.990,-0.0006000,0.0114000,9.6780000,33.2718000,31.2958000,30.7388000,-35.9620000,-7.1270000,8.4440000,0.000000,0,0,0
3.000,-0.0006000,0.0138000,9.6792000,33.2870000,31.2958000,30.7312000,-35.7060000,-7.0490000,8.1480000,0.000000,0,0,0
3.010,-0.0006000,0.0161000,9.6744000,33.2565000,31.2805000,30.7236000,-36.1220000,-7.0660000,8.0650000,0.000000,0,0,0
3.020,0.0006000,0.0185000,9.6708000,33.1955000,31.2729000,30.7159000,-35.7010000,-7.0450000,8.1350000,0.000000,0,0,0
3.030,0.0006000,0.0209000,9.6720000,33.1192000,31.2729000,30.7007000,-35.7630000,-7.1720000,8.0770000,0.000000,0,0,0
3.040,0.0006000,0.0209000,9.6744000,33.0582000,31.2881000,30.6931000,-35.5230000,-6.7870000,7.8410000,0.000000,0,0,0
3.050,-0.0018000,0.0221000,9.6768000,33.0048000,31.2958000,30.6854000,-35.8430000,-6.5980000,7.9620000,0.000000,0,0,0
3.060,-0.0030000,0.0209000,9.6768000,32.9590000,31.2958000,30.6931000,-36.0510000,-6.8780000,7.8180000,0.000000,0,0,0
3.070,-0.0030000,0.0185000,9.6780000,32.9285000,31.2958000,30.7007000,-36.0250000,-7.0980000,7.8200000,0.000000,0,0,0
3.080,-0.0030000,0.0161000,9.6816000,32.9132000,31.2958000,30.7159000,-35.9860000,-6.9940000,7.7080000,0.000000,0,0,0
3.090,-0.0042000,0.0126000,9.6804000,32.9132000,31.3034000,30.7236000,-35.9700000,-7.1920000,7.7600000,0.000000,0,0,0
3.100,-0.0042000,0.0126000,9.6768000,32.9208000,31.3187000,30.7312000,-35.8850000,-6.7990000,7.8490000,0.000000,0,0,0
3.110,-0.0042000,0.0138000,9.6744000,32.9361000,31.3492000,30.7312000,-36.1870000,-6.7720000,8.3060000,0.000000,0,0,0
3.120,-0.0054000,0.0173000,9.6756000,32.9437000,31.3873000,30.7312000,-36.0210000,-6.7060000,7.4880000,0.000000,0,0,0
3.130,-0.0066000,0.0197000,9.6768000,32.9590000,31.4255000,30.7312000,-35.9180000,-6.9040000,7.9570000,0.000000,0,0,0
3.140,-0.0078000,0.0209000,9.6768000,32.9819000,31.4636000,30.7312000,-35.9100000,-7.0110000,7.9410000,0.000000,0,0,0
3.150,-0.0078000,0.0221000,9.6768000,32.9895000,31.4789000,30.7236000,-35.9800000,-6.7140000,7.7510000,0.000000,0,0,0
3.160,-0.0090000,0.0209000,9.6768000,32.9971000,31.4865000,30.7236000,-35.9450000,-7.1250000,7.9020000,0.000000,0,0,0
3.170,-0.0078000,0.0197000,9.6780000,32.9971000,31.4941000,30.7236000,-36.0180000,-6.8310000,8.1670000,0.000000,0,0,0
3.180,-0.0078000,0.0173000,9.6780000,32.9895000,31.4865000,30.7236000,-35.8850000,-6.8560000,8.3070000,0.000000,0,0,0
3.190,-0.0078000,0.0161000,9.6780000,32.9742000,31.4636000,30.7236000,-36.0030000,-6.8810000,8.3360000,0.000000,0,0,0
3.200,-0.0066000,0.0173000,9.6780000,32.9514000,31.4407000,30.7236000,-35.9150000,-6.7360000,8.4910000,0.000000,0,0,0
3.210,-0.0054000,0.0185000,9.6780000,32.9208000,31.4026000,30.7236000,-35.8270000,-6.5540000,8.1520000,0.000000,0,0,0
3.220,-0.0054000,0.0197000,9.6768000,32.9056000,31.3721000,30.7312000,-35.6850000,-6.5760000,8.1470000,0.000000,0,0,0
3.230,-0.0054000,0.0197000,9.6756000,32.8979000,31.3416000,30.7312000,-35.6910000,-6.9280000,8.2530000,0.000000,0,0,0
3.240,-0.0042000,0.0197000,9.6756000,32.8827000,31.3034000,30.7236000,-35.9660000,-6.7870000,8.6710000,0.000000,0,0,0
3.250,-0.0042000,0.0197000,9.6744000,32.8751000,31.2729000,30.7236000,-35.8540000,-6.8320000,8.0910000,0.000000,0,0,0
3.260,-0.0030000,0.0185000,9.6720000,32.8674000,31.2500000,30.7159000,-35.9240000,-6.7960000,8.3860000,0.000000,0,0,0
3.270,-0.0042000,0.0173000,9.6720000,32.8674000,31.2500000,30.7083000,-35.8070000,-6.8200000,8.7040000,0.000000,0,0,0
3.280,-0.0042000,0.0161000,9.6732000,32.8674000,31.2653000,30.7083000,-35.9690000,-6.9840000,8.4400000,0.000000,0,0,0
3.290,-0.0030000,0.0173000,9.6744000,32.8827000,31.2958000,30.7159000,-36.1220000,-6.9940000,8.0730000,0.000000,0,0,0
3.300,-0.0030000,0.0197000,9.6720000,32.8903000,31.3263000,30.7159000,-35.6720000,-6.8940000,8.5880000,0.000000,0,0,0
3.310,-0.0054000,0.0209000,9.6720000,32.9056000,31.3644000,30.7236000,-35.8980000,-7.2280000,8.7460000,0.000000,0,0,0
3.320,-0.0066000,0.0221000,9.6732000,32.9208000,31.3950000,30.7312000,-35.3560000,-7.0440000,8.4130000,0.000000,0,0,0
3.330,-0.0078000,0.0209000,9.6756000,32.9208000,31.4102000,30.7236000,-36.0060000,-7.0560000,7.6670000,0.000000,0,0,0
3.340,-0.0078000,0.0197000,9.6744000,32.9208000,31.4026000,30.7236000,-35.9770000,-7.1860000,7.8770000,0.000000,0,0,0
3.350,-0.0078000,0.0197000,9.6732000,32.9056000,31.3721000,30.7159000,-35.8820000,-7.2920000,8.1440000,0.000000,0,0,0
3.360,-0.0078000,0.0209000,9.6720000,32.8903000,31.3339000,30.7159000,-35.8670000,-6.8890000,8.3710000,0.000000,0,0,0
3.370,-0.0066000,0.0209000,9.6732000,32.8674000,31.2958000,30.7083000,-35.9740000,-6.9180000,7.6130000,0.000000,0,0,0
3.380,-0.0066000,0.0209000,9.6732000,32.8522000,31.2500000,30.7083000,-35.8380000,-6.9960000,7.6290000,0.000000,0,0,0
3.390,-0.0066000,0.0197000,9.6720000,32.8369000,31.2195000,30.7083000,-36.0340000,-7.0050000,7.9060000,0.000000,0,0,0
3.400,-0.0054000,0.0197000,9.6732000,32.8293000,31.1966000,30.7007000,-35.6780000,-6.5190000,8.1760000,0.000000,0,0,0
3.410,-0.0054000,0.0185000,9.6768000,32.8293000,31.1890000,30.7083000,-35.7030000,-6.8600000,7.9450000,0.000000,0,0,0
3.420,-0.0042000,0.0173000,9.6792000,32.8293000,31.1813000,30.7083000,-35.9850000,-6.8770000,8.5040000,0.000000,0,0,0
3.430,-0.0042000,0.0161000,9.6792000,32.8369000,31.1813000,30.7159000,-36.2310000,-6.9740000,8.6100000,0.000000,0,0,0
3.440,-0.0042000,0.0161000,9.6780000,32.8369000,31.1813000,30.7159000,-35.9300000,-6.7510000,9.4810000,0.000000,0,0,0
3.450,-0.0054000,0.0173000,9.6756000,32.8445000,31.1890000,30.7159000,-36.0050000,-6.9620000,9.0650000,0.000000,0,0,0
3.460,-0.0054000,0.0209000,9.6744000,32.8522000,31.1966000,30.7159000,-35.7290000,-6.9740000,8.8930000,0.000000,0,0,0
3.470,-0.0042000,0.0221000,9.6732000,32.8522000,31.2119000,30.7159000,-36.0170000,-6.5720000,8.8220000,0.000000,0,0,0
3.480,-0.0042000,0.0233000,9.6720000,32.8522000,31.2271000,30.7159000,-35.8700000,-6.9500000,8.1170000,0.000000,0,0,0
3.490,-0.0030000,0.0233000,9.6732000,32.8522000,31.2576000,30.7159000,-36.0010000,-6.7570000,8.7060000,0.000000,0,0,0
3.500,-0.0030000,0.0221000,9.6732000,32.8522000,31.2958000,30.7236000,-35.8310000,-6.8020000,8.1590000,0.000000,0,0,0
3.510,-0.0018000,0.0197000,9.6732000,32.8674000,31.3339000,30.7236000,-36.0250000,-7.0120000,8.1940000,0.000000,0,0,0
3.520,0.0006000,0.0197000,9.6732000,32.8827000,31.3721000,30.7312000,-36.2660000,-6.8300000,7.8910000,0.000000,0,0,0
3.530,0.0006000,0.0185000,9.6720000,32.9056000,31.4178000,30.7312000,-36.2050000,-6.9760000,8.0200000,0.000000,0,0,0
3.540,0.0006000,0.0185000,9.6732000,32.9208000,31.4484000,30.7312000,-36.0810000,-6.6790000,8.3410000,0.000000,0,0,0
3.550,-0.0006000,0.0197000,9.6744000,32.9208000,31.4789000,30.7388000,-35.9540000,-7.0620000,8.3020000,0.000000,0,0,0
3.560,-0.0018000,0.0197000,9.6744000,32.9285000,31.5018000,30.7388000,-35.8210000,-6.7850000,8.1540000,0.000000,0,0,0
3.570,-0.0030000,0.0209000,9.6732000,32.9361000,31.5170000,30.7388000,-35.8650000,-6.9310000,8.5810000,0.000000,0,0,0
3.580,-0.0042000,0.0209000,9.6708000,32.9285000,31.5247000,30.7388000,-36.0950000,-6.8800000,7.9650000,0.000000,0,0,0
3.590,-0.0030000,0.0209000,9.6708000,32.9285000,31.5170000,30.7312000,-36.0300000,-6.9310000,8.0790000,0.000000,0,0,0
3.600,-0.0042000,0.0209000,9.6708000,32.9208000,31.5094000,30.7312000,-35.8110000,-6.8460000,8.5150000,0.000000,0,0,0
3.610,-0.0054000,0.0209000,9.6708000,32.9132000,31.4941000,30.7236000,-36.0230000,-7.1020000,8.4060000,0.000000,0,0,0
3.620,-0.0054000,0.0221000,9.6708000,32.9056000,31.4713000,30.7236000,-36.1950000,-6.9800000,7.8060000,0.000000,0,0,0
3.630,-0.0054000,0.0233000,9.6708000,32.8979000,31.4484000,30.7236000,-35.8300000,-6.9450000,8.2110000,0.000000,0,0,0
3.640,-0.0054000,0.0245000,9.6708000,32.8903000,31.4102000,30.7312000,-35.9670000,-7.0820000,8.1360000,0.000000,0,0,0
3.650,-0.0066000,0.0257000,9.6720000,32.8827000,31.3721000,30.7312000,-36.1590000,-6.7730000,8.1240000,0.000000,0,0,0
3.660,-0.0078000,0.0257000,9.6720000,32.8751000,31.3339000,30.7312000,-35.7840000,-6.8120000,8.3190000,0.000000,0,0,0
3.670,-0.0078000,0.0257000,9.6720000,32.8674000,31.3034000,30.7236000,-36.0250000,-6.9240000,8.4010000,0.000000,0,0,0
3.680,-0.0090000,0.0233000,9.6720000,32.8598000,31.2805000,30.7159000,-35.8120000,-7.0280000,8.1690000,0.000000,0,0,0
3.690,-0.0102000,0.0209000,9.6720000,32.8598000,31.2653000,30.7083000,-36.1170000,-6.8670000,7.7910000,0.000000,0,0,0
3.700,-0.0102000,0.0173000,9.6720000,32.8598000,31.2576000,30.7083000,-36.4390000,-7.0750000,7.1380000,0.000000,0,0,0
3.710,-0.0090000,0.0161000,9.6720000,32.8598000,31.2653000,30.7083000,-36.0600000,-7.0890000,8.1510000,0.000000,0,0,0
3.720,-0.0102000,0.0161000,9.6744000,32.8674000,31.2805000,30.7159000,-35.9240000,-6.6010000,7.8120000,0.000000,0,0,0
3.730,-0.0102000,0.0185000,9.6732000,32.8751000,31.3034000,30.7159000,-36.1000000,-6.9570000,8.2720000,0.000000,0,0,0
3.740,-0.0078000,0.0197000,9.6732000,32.8827000,31.3110000,30.7236000,-36.1110000,-6.7020000,7.0050000,0.000000,0,0,0
3.750,-0.0066000,0.0221000,9.6744000,32.8903000,31.3187000,30.7236000,-36.1640000,-6.9510000,7.4640000,0.000000,0,0,0
3.760,-0.0066000,0.0233000,9.6732000,32.8979000,31.3263000,30.7236000,-36.1410000,-6.9630000,7.9700000,0.000000,0,0,0
3.770,-0.0078000,0.0233000,9.6708000,32.8903000,31.3263000,30.7159000,-36.1640000,-6.8200000,7.8450000,0.000000,0,0,0
3.780,-0.0078000,0.0221000,9.6708000,32.8827000,31.3339000,30.7083000,-36.0000000,-6.4840000,7.4800000,0.000000,0,0,0
3.790,-0.0078000,0.0221000,9.6744000,32.8827000,31.3416000,30.7083000,-36.0230000,-6.8160000,7.6260000,0.000000,0,0,0
3.800,-0.0066000,0.0209000,9.6768000,32.8903000,31.3568000,30.7083000,-35.8650000,-6.9930000,7.6580000,0.000000,0,0,0
3.810,-0.0066000,0.0209000,9.6732000,32.8979000,31.3721000,30.7159000,-36.0180000,-6.7820000,7.6490000,0.000000,0,0,0
3.820,-0.0066000,0.0209000,9.6708000,32.9056000,31.3873000,30.7236000,-35.9080000,-6.8650000,7.8400000,0.000000,0,0,0
3.830,-0.0066000,0.0197000,9.6708000,32.9056000,31.3950000,30.7236000,-35.9680000,-6.9190000,7.7630000,0.000000,0,0,0
3.840,-0.0078000,0.0185000,9.6720000,32.9056000,31.4026000,30.7159000,-35.9270000,-6.8050000,7.6650000,0.000000,0,0,0
3.850,-0.0090000,0.0185000,9.6708000,32.9132000,31.4026000,30.7159000,-36.4950000,-6.9730000,7.9140000,0.000000,0,0,0
3.860,-0.0102000,0.0185000,9.6720000,32.9056000,31.3950000,30.7083000,-36.1080000,-6.9590000,6.7870000,0.000000,0,0,0
3.870,-0.0102000,0.0185000,9.6744000,32.8979000,31.3873000,30.7083000,-35.8110000,-6.7820000,7.4870000,0.000000,0,0,0
3.880,-0.0090000,0.0173000,9.6744000,32.9056000,31.3797000,30.7083000,-35.7850000,-6.7980000,7.1580000,0.000000,0,0,0
3.890,-0.0078000,0.0185000,9.6720000,32.9056000,31.3721000,30.7083000,-36.0700000,-7.0130000,7.8410000,0.000000,0,0,0
3.900,-0.0078000,0.0197000,9.6696000,32.8979000,31.3644000,30.7159000,-36.0790000,-7.0510000,7.2990000,0.000000,0,0,0
3.910,-0.0066000,0.0197000,9.6732000,32.8979000,31.3568000,30.7159000,-36.0760000,-6.9260000,7.9790000,0.000000,0,0,0
3.920,-0.0054000,0.0197000,9.6744000,32.8979000,31.3416000,30.7236000,-36.1190000,-6.8980000,7.6830000,0.000000,0,0,0
3.930,-0.0054000,0.0209000,9.6720000,32.8979000,31.3263000,30.7236000,-36.4750000,-6.8660000,8.0250000,0.000000,0,0,0
3.940,-0.0066000,0.0221000,9.6684000,32.8903000,31.3187000,30.7312000,-35.9990000,-6.7270000,8.0070000,0.000000,0,0,0
3.950,-0.0078000,0.0233000,9.6684000,32.8827000,31.3110000,30.7312000,-35.7320000,-7.0470000,7.4680000,0.000000,0,0,0
3.960,-0.0078000,0.0233000,9.6708000,32.8751000,31.3034000,30.7312000,-36.2420000,-7.0420000,7.3860000,0.000000,0,0,0
3.970,-0.0078000,0.0245000,9.6708000,32.8751000,31.3110000,30.7236000,-36.0090000,-6.6210000,7.8950000,0.000000,0,0,0
3.980,-0.0066000,0.0245000,9.6708000,32.8751000,31.3187000,30.7236000,-35.9810000,-6.9320000,7.6690000,0.000000,0,0,0
3.990,-0.0078000,0.0257000,9.6708000,32.8674000,31.3263000,30.7236000,-35.9660000,-6.7720000,7.3920000,0.000000,0,0,0
4.000,-0.0078000,0.0257000,9.6744000,32.8674000,31.3263000,30.7159000,-35.9260000,-6.5300000,7.7260000,0.000000,0,0,0
4.010,-0.0090000,0.0257000,9.6768000,32.8751000,31.3187000,30.7159000,-36.0910000,-6.7690000,7.6400000,0.000000,0,0,0
4.020,-0.0102000,0.0233000,9.6768000,32.8827000,31.3034000,30.7159000,-36.0170000,-6.6940000,8.0930000,0.000000,0,0,0
4.030,-0.0090000,0.0209000,9.6768000,32.8903000,31.2958000,30.7159000,-36.0600000,-6.8810000,7.5650000,0.000000,0,0,0
4.040,-0.0078000,0.0209000,9.6756000,32.8827000,31.2729000,30.7159000,-35.9240000,-6.6220000,7.8140000,0.000000,0,0,0
4.050,-0.0078000,0.0233000,9.6756000,32.8827000,31.2500000,30.7159000,-36.0680000,-6.6880000,7.7600000,0.000000,0,0,0
4.060,-0.0066000,0.0269000,9.6744000,32.8827000,31.2347000,30.7159000,-36.0430000,-6.6560000,8.0120000,0.000000,0,0,0
4.070,-0.0066000,0.0305000,9.6732000,32.8827000,31.2271000,30.7083000,-36.0710000,-6.7200000,7.7460000,0.000000,0,0,0
4.080,-0.0054000,0.0317000,9.6720000,32.8827000,31.2271000,30.7007000,-36.1130000,-6.7400000,7.8970000,0.000000,0,0,0
4.090,-0.0042000,0.0293000,9.6720000,32.8827000,31.2347000,30.7007000,-36.2260000,-6.9690000,7.7630000,0.000000,0,0,0
4.100,-0.0018000,0.0269000,9.6720000,32.8827000,31.2576000,30.7007000,-35.9070000,-6.7560000,7.5810000,0.000000,0,0,0
4.110,-0.0006000,0.0233000,9.6708000,32.8903000,31.2805000,30.7083000,-36.0200000,-6.5030000,7.3980000,0.000000,0,0,0
4.120,-0.0018000,0.0209000,9.6684000,32.8979000,31.3187000,30.7083000,-36.1110000,-6.4300000,7.5020000,0.000000,0,0,0
4.130,-0.0018000,0.0197000,9.6696000,32.9056000,31.3492000,30.7159000,-35.9340000,-6.7400000,7.3630000,0.000000,0,0,0
4.140,-0.0030000,0.0197000,9.6708000,32.9132000,31.3873000,30.7159000,-35.8320000,-7.0770000,7.5770000,0.000000,0,0,0
4.150,-0.0042000,0.0209000,9.6708000,32.9132000,31.4178000,30.7159000,-35.9030000,-6.9100000,7.4090000,0.000000,0,0,0
4.160,-0.0054000,0.0221000,9.6708000,32.9132000,31.4255000,30.7236000,-35.8880000,-6.7940000,7.4120000,0.000000,0,0,0
4.170,-0.0078000,0.0245000,9.6708000,32.9132000,31.4255000,30.7236000,-36.0950000,-6.8080000,7.3440000,0.000000,0,0,0
4.180,-0.0078000,0.0245000,9.6720000,32.9056000,31.4102000,30.7312000,-36.0410000,-6.6680000,7.4510000,0.000000,0,0,0
4.190,-0.0090000,0.0245000,9.6708000,32.8979000,31.4026000,30.7312000,-36.1310000,-6.9880000,7.7020000,0.000000,0,0,0
4.200,-0.0090000,0.0221000,9.6720000,32.8979000,31.3950000,30.7312000,-36.0580000,-6.9080000,7.1570000,0.000000,0,0,0
4.210,-0.0078000,0.0209000,9.6732000,32.8979000,31.3950000,30.7236000,-36.1630000,-6.9270000,7.7630000,0.000000,0,0,0
4.220,-0.0078000,0.0209000,9.6744000,32.9056000,31.3950000,30.7236000,-35.8770000,-6.9630000,7.7840000,0.000000,0,0,0
4.230,-0.0078000,0.0221000,9.6732000,32.9132000,31.3950000,30.7236000,-36.0520000,-6.9230000,8.1970000,0.000000,0,0,0
4.240,-0.0078000,0.0233000,9.6720000,32.9132000,31.3873000,30.7236000,-36.1620000,-7.0480000,7.7350000,0.000000,0,0,0
4.250,-0.0078000,0.0245000,9.6708000,32.9056000,31.3644000,30.7159000,-36.1460000,-6.8950000,7.2590000,0.000000,0,0,0
4.260,-0.0090000,0.0245000,9.6696000,32.8979000,31.3339000,30.7159000,-36.3030000,-6.7880000,7.6570000,0.000000,0,0,0
4.270,-0.0078000,0.0245000,9.6684000,32.8827000,31.3034000,30.7083000,-36.1770000,-6.4730000,8.4090000,0.000000,0,0,0
4.280,-0.0078000,0.0245000,9.6684000,32.8674000,31.2805000,30.7083000,-36.0770000,-6.8910000,8.2010000,0.000000,0,0,0
4.290,-0.0090000,0.0233000,9.6732000,32.8598000,31.2653000,30.7083000,-35.7620000,-6.7100000,8.9240000,0.000000,0,0,0
4.300,-0.0102000,0.0233000,9.6756000,32.8522000,31.2653000,30.7083000,-35.6880000,-6.7230000,8.7330000,0.000000,0,0,0
4.310,-0.0126000,0.0245000,9.6732000,32.8522000,31.2576000,30.7083000,-35.8840000,-6.8910000,8.4290000,0.000000,0,0,0
4.320,-0.0126000,0.0233000,9.6708000,32.8522000,31.2653000,30.7159000,-35.5240000,-6.8810000,8.3860000,0.000000,0,0,0
4.330,-0.0078000,0.0138000,9.6720000,32.8674000,31.2729000,30.7159000,-36.1250000,-6.8960000,8.1890000,0.000000,0,0,0
4.340,-0.0042000,0.0030000,9.6684000,32.8674000,31.2881000,30.7236000,-35.8140000,-6.9140000,8.4490000,0.000000,0,0,0
4.350,-0.0042000,0.0006000,9.6672000,32.8293000,31.3110000,30.7388000,-35.6290000,-6.6490000,7.4390000,0.000000,0,0,0
4.360,-0.0078000,0.0066000,9.6768000,32.8140000,31.3416000,30.7465000,-36.0740000,-7.0240000,7.7400000,0.000000,0,0,0
4.370,-0.0114000,0.0161000,9.6804000,32.8522000,31.3797000,30.7465000,-36.1830000,-7.1330000,7.5480000,0.000000,0,0,0
4.380,-0.0138000,0.0269000,9.6732000,32.9132000,31.4026000,30.7465000,-35.7590000,-7.2110000,7.9270000,0.000000,0,0,0
4.390,-0.0114000,0.0353000,9.6672000,32.9590000,31.4255000,30.7388000,-35.9070000,-6.9940000,7.2860000,0.000000,0,0,0
4.400,-0.0078000,0.0401000,9.6720000,32.9819000,31.4484000,30.7388000,-36.0410000,-7.0420000,8.0870000,0.000000,0,0,0
4.410,-0.0054000,0.0389000,9.6804000,32.9895000,31.4713000,30.7312000,-36.2080000,-7.0160000,7.2190000,0.000000,0,0,0
4.420,-0.0066000,0.0353000,9.6768000,32.9819000,31.4713000,30.7312000,-36.3640000,-7.0010000,7.8430000,0.000000,0,0,0
4.430,-0.0078000,0.0293000,9.6684000,32.9590000,31.4560000,30.7312000,-35.7930000,-7.1870000,8.1390000,0.000000,0,0,0
4.440,-0.0102000,0.0233000,9.6660000,32.9361000,31.4331000,30.7312000,-35.8320000,-7.3270000,7.2320000,0.000000,0,0,0
4.450,-0.0102000,0.0185000,9.6708000,32.9132000,31.4026000,30.7236000,-36.0760000,-7.1420000,8.0750000,0.000000,0,0,0
4.460,-0.0102000,0.0138000,9.6696000,32.8903000,31.3339000,30.7312000,-35.7730000,-7.4420000,7.0450000,0.000000,0,0,0
4.470,-0.0090000,0.0150000,9.6648000,32.8751000,31.3034000,30.7312000,-35.7960000,-6.9960000,6.9850000,0.000000,0,0,0
4.480,-0.0090000,0.0185000,9.6660000,32.8674000,31.2805000,30.7312000,-36.0430000,-7.1940000,7.2670000,0.000000,0,0,0
4.490,-0.0102000,0.0245000,9.6720000,32.8598000,31.2805000,30.7312000,-36.1280000,-7.3800000,8.1440000,0.000000,0,0,0
4.500,-0.0114000,0.0293000,9.6756000,32.8674000,31.2805000,30.7312000,-36.0430000,-7.1580000,7.9060000,0.000000,0,0,0
4.510,-0.0114000,0.0341000,9.6732000,32.8674000,31.2881000,30.7236000,-35.8940000,-7.1100000,7.8900000,0.000000,0,0,0
4.520,-0.0102000,0.0329000,9.6732000,32.8827000,31.3110000,30.7236000,-35.9600000,-6.9880000,7.6250000,0.000000,0,0,0
4.530,-0.0090000,0.0269000,9.6756000,32.8903000,31.3339000,30.7159000,-36.2340000,-7.1350000,7.9770000,0.000000,0,0,0
4.540,-0.0078000,0.0185000,9.6768000,32.9132000,31.3721000,30.7159000,-35.9190000,-7.0920000,7.4760000,0.000000,0,0,0
4.550,-0.0078000,0.0102000,9.6732000,32.9437000,31.4102000,30.7236000,-36.0420000,-7.0790000,7.6280000,0.000000,0,0,0
4.560,-0.0078000,0.0066000,9.6684000,32.9590000,31.4407000,30.7236000,-36.1530000,-7.5640000,8.5970000,0.000000,0,0,0
4.570,-0.0078000,0.0102000,9.6696000,32.9742000,31.4636000,30.7312000,-35.9860000,-7.3960000,8.4040000,0.000000,0,0,0
4.580,-0.0078000,0.0185000,9.6732000,32.9819000,31.4941000,30.7388000,-35.9860000,-7.2680000,8.5180000,0.000000,0,0,0
4.590,-0.0090000,0.0257000,9.6744000,32.9895000,31.5094000,30.7388000,-35.7690000,-7.4000000,8.1420000,0.000000,0,0,0
4.600,-0.0114000,0.0305000,9.6708000,32.9895000,31.5094000,30.7388000,-36.2260000,-7.2770000,8.0220000,0.000000,0,0,0
4.610,-0.0114000,0.0317000,9.6696000,32.9742000,31.4789000,30.7236000,-35.6640000,-7.4680000,7.5310000,0.000000,0,0,0
4.620,-0.0114000,0.0305000,9.6696000,32.9590000,31.4331000,30.7236000,-36.1040000,-7.5860000,8.5110000,0.000000,0,0,0
4.630,-0.0114000,0.0281000,9.6696000,32.9285000,31.3721000,30.7159000,-36.1030000,-7.4050000,8.2710000,0.000000,0,0,0
4.640,-0.0102000,0.0257000,9.6672000,32.8827000,31.3110000,30.7159000,-36.0600000,-7.3840000,7.8980000,0.000000,0,0,0
4.650,-0.0114000,0.0245000,9.6660000,32.8369000,31.2424000,30.7159000,-36.2070000,-6.9580000,8.2560000,0.000000,0,0,0
4.660,-0.0126000,0.0245000,9.6684000,32.8064000,31.1890000,30.7083000,-35.9350000,-7.3070000,7.7050000,0.000000,0,0,0
4.670,-0.0102000,0.0245000,9.6708000,32.7911000,31.1508000,30.7083000,-36.2080000,-7.3890000,8.0340000,0.000000,0,0,0
4.680,-0.0090000,0.0233000,9.6720000,32.7911000,31.1508000,30.7083000,-36.2720000,-7.1590000,7.7160000,0.000000,0,0,0
4.690,-0.0078000,0.0221000,9.6720000,32.8140000,31.1737000,30.7159000,-36.2850000,-7.4590000,7.7430000,0.000000,0,0,0
4.700,-0.0078000,0.0221000,9.6744000,32.8445000,31.2119000,30.7236000,-36.1890000,-7.4490000,7.3780000,0.000000,0,0,0
4.710,-0.0078000,0.0221000,9.6756000,32.8751000,31.2653000,30.7236000,-36.0360000,-7.5100000,7.6900000,0.000000,0,0,0
4.720,-0.0090000,0.0221000,9.6744000,32.8979000,31.3110000,30.7312000,-36.2140000,-7.3730000,7.6900000,0.000000,0,0,0
4.730,-0.0102000,0.0233000,9.6720000,32.9132000,31.3416000,30.7312000,-36.0690000,-7.1630000,7.4280000,0.000000,0,0,0
4.740,-0.0090000,0.0245000,9.6708000,32.9208000,31.3568000,30.7236000,-36.0910000,-7.4010000,7.7700000,0.000000,0,0,0
4.750,-0.0090000,0.0257000,9.6708000,32.9208000,31.3644000,30.7236000,-36.6560000,-7.6450000,7.8780000,0.000000,0,0,0
4.760,-0.0090000,0.0257000,9.6696000,32.8979000,31.3492000,30.7236000,-35.9550000,-7.3000000,7.7120000,0.000000,0,0,0
4.770,-0.0090000,0.0269000,9.6684000,32.8827000,31.3263000,30.7159000,-35.9750000,-7.3920000,8.3140000,0.000000,0,0,0
4.780,-0.0090000,0.0269000,9.6696000,32.8674000,31.3034000,30.7159000,-35.9310000,-7.3690000,7.8160000,0.000000,0,0,0
4.790,-0.0114000,0.0269000,9.6708000,32.8598000,31.2805000,30.7083000,-36.2150000,-7.0440000,7.5970000,0.000000,0,0,0
4.800,-0.0126000,0.0269000,9.6720000,32.8522000,31.2729000,30.7083000,-35.9870000,-7.2750000,8.2190000,0.000000,0,0,0
4.810,-0.0126000,0.0257000,9.6732000,32.8522000,31.2729000,30.7159000,-36.2010000,-7.5330000,8.2910000,0.000000,0,0,0
4.820,-0.0102000,0.0245000,9.6720000,32.8522000,31.2805000,30.7159000,-36.0560000,-7.4950000,8.3690000,0.000000,0,0,0
4.830,-0.0078000,0.0209000,9.6708000,32.8598000,31.2881000,30.7159000,-36.2300000,-7.4620000,7.0560000,0.000000,0,0,0
4.840,-0.0066000,0.0173000,9.6708000,32.8674000,31.3034000,30.7159000,-36.4210000,-7.2940000,7.8060000,0.000000,0,0,0
4.850,-0.0066000,0.0138000,9.6708000,32.8751000,31.3110000,30.7159000,-35.7530000,-7.1760000,7.9510000,0.000000,0,0,0
4.860,-0.0066000,0.0138000,9.6696000,32.8674000,31.3187000,30.7159000,-36.0720000,-7.1730000,7.6930000,0.000000,0,0,0
4.870,-0.0078000,0.0173000,9.6684000,32.8674000,31.3263000,30.7159000,-36.0030000,-7.0900000,8.2200000,0.000000,0,0,0
4.880,-0.0078000,0.0233000,9.6696000,32.8674000,31.3339000,30.7236000,-35.8210000,-7.2300000,8.4640000,0.000000,0,0,0
4.890,-0.0078000,0.0305000,9.6720000,32.8751000,31.3492000,30.7236000,-35.8200000,-7.4020000,8.4480000,0.000000,0,0,0
4.900,-0.0078000,0.0353000,9.6732000,32.8827000,31.3644000,30.7236000,-36.2370000,-7.1020000,8.1160000,0.000000,0,0,0
4.910,-0.0078000,0.0377000,9.6720000,32.8979000,31.3721000,30.7236000,-36.1670000,-7.3560000,7.8720000,0.000000,0,0,0
4.920,-0.0078000,0.0365000,9.6720000,32.9056000,31.3721000,30.7236000,-35.9970000,-7.3490000,7.9440000,0.000000,0,0,0
4.930,-0.0078000,0.0329000,9.6720000,32.9208000,31.3721000,30.7159000,-36.0490000,-7.1720000,7.8500000,0.000000,0,0,0
4.940,-0.0078000,0.0269000,9.6696000,32.9361000,31.3721000,30.7159000,-35.8390000,-6.9960000,8.1450000,0.000000,0,0,0
4.950,-0.0078000,0.0245000,9.6672000,32.9285000,31.3721000,30.7159000,-35.8710000,-7.4600000,7.9420000,0.000000,0,0,0
4.960,-0.0090000,0.0221000,9.6672000,32.9132000,31.3644000,30.7236000,-36.0970000,-7.3430000,7.9700000,0.000000,0,0,0
4.970,-0.0090000,0.0221000,9.6696000,32.8903000,31.3492000,30.7312000,-35.9820000,-7.2620000,7.8990000,0.000000,0,0,0
4.980,-0.0102000,0.0221000,9.6708000,32.8827000,31.3416000,30.7312000,-35.9180000,-6.9110000,8.3090000,0.000000,0,0,0
4.990,-0.0114000,0.0221000,9.6708000,32.8827000,31.3492000,30.7312000,-36.2140000,-7.3300000,8.4190000,0.000000,0,0,0
5.000,-0.0126000,0.0233000,9.6696000,32.8827000,31.3644000,30.7312000,-35.8630000,-7.3650000,8.1100000,0.000000,0,0,0
5.010,-0.0138000,0.0257000,9.6708000,32.8979000,31.3797000,30.7388000,-36.1010000,-7.5760000,8.8040000,0.000000,0,0,0
5.020,-0.0138000,0.0269000,9.6708000,32.9056000,31.3950000,30.7465000,-36.2270000,-7.4010000,8.3230000,0.000000,0,0,0
5.030,-0.0126000,0.0281000,9.6684000,32.9132000,31.4102000,30.7388000,-35.8340000,-7.6610000,8.3680000,0.000000,0,0,0
5.040,-0.0126000,0.0257000,9.6672000,32.9132000,31.4026000,30.7312000,-36.1230000,-7.3040000,8.2980000,0.000000,0,0,0
5.050,-0.0126000,0.0233000,9.6672000,32.8979000,31.3797000,30.7312000,-35.7490000,-7.1500000,8.7540000,0.000000,0,0,0
5.060,-0.0114000,0.0209000,9.6684000,32.8903000,31.3492000,30.7236000,-36.0100000,-7.7510000,7.9950000,0.000000,0,0,0
5.070,-0.0102000,0.0197000,9.6684000,32.8827000,31.3110000,30.7159000,-36.0590000,-7.4900000,8.6060000,0.000000,0,0,0
5.080,-0.0090000,0.0197000,9.6696000,32.8674000,31.2729000,30.7159000,-35.8760000,-7.4720000,7.9080000,0.000000,0,0,0
5.090,-0.0090000,0.0221000,9.6696000,32.8674000,31.2424000,30.7083000,-36.1650000,-7.7270000,7.8990000,0.000000,0,0,0
5.100,-0.0102000,0.0245000,9.6708000,32.8674000,31.2119000,30.7083000,-36.0540000,-7.3130000,7.4820000,0.000000,0,0,0
5.110,-0.0114000,0.0281000,9.6708000,32.8674000,31.1966000,30.7083000,-36.0010000,-7.6340000,7.6570000,0.000000,0,0,0
5.120,-0.0126000,0.0293000,9.6708000,32.8522000,31.1661000,30.7083000,-36.3020000,-7.5480000,7.7490000,0.000000,0,0,0
5.130,-0.0126000,0.0269000,9.6708000,32.8445000,31.1508000,30.7083000,-36.0380000,-7.3120000,7.6780000,0.000000,0,0,0
5.140,-0.0114000,0.0233000,9.6708000,32.8293000,31.1356000,30.7083000,-35.9890000,-7.4780000,7.8190000,0.000000,0,0,0
5.150,-0.0102000,0.0221000,9.6696000,32.8217000,31.1356000,30.7083000,-36.2130000,-7.2070000,8.0930000,0.000000,0,0,0
5.160,-0.0090000,0.0233000,9.6684000,32.8217000,31.1356000,30.7083000,-36.0300000,-7.2750000,7.4330000,0.000000,0,0,0
5.170,-0.0090000,0.0245000,9.6696000,32.8217000,31.1432000,30.7083000,-36.2190000,-7.5230000,7.8490000,0.000000,0,0,0
5.180,-0.0090000,0.0245000,9.6708000,32.8293000,31.1584000,30.7083000,-35.9100000,-7.4560000,8.1440000,0.000000,0,0,0
5.190,-0.0078000,0.0245000,9.6720000,32.8369000,31.1813000,30.7083000,-35.9030000,-7.2330000,7.6040000,0.000000,0,0,0
5.200,-0.0066000,0.0233000,9.6720000,32.8522000,31.2042000,30.7083000,-35.9650000,-7.2010000,8.0680000,0.000000,0,0,0
5.210,-0.0054000,0.0221000,9.6720000,32.8674000,31.2271000,30.7083000,-36.0410000,-7.6460000,7.8700000,0.000000,0,0,0
5.220,-0.0054000,0.0221000,9.6720000,32.8751000,31.2424000,30.7083000,-35.9540000,-7.3060000,7.7370000,0.000000,0,0,0
5.230,-0.0054000,0.0221000,9.6708000,32.8674000,31.2500000,30.7083000,-36.0100000,-7.3550000,7.8810000,0.000000,0,0,0
5.240,-0.0042000,0.0281000,9.6529000,32.7606000,31.2500000,30.7159000,-35.9150000,-7.2390000,7.3400000,0.000000,0,0,0
5.250,-0.0054000,0.0233000,9.6612000,32.5623000,31.2424000,30.7083000,-36.0180000,-7.5220000,7.7100000,0.000000,0,0,0
5.260,-0.0066000,0.0221000,9.6660000,32.5546000,31.2271000,30.7159000,-36.0270000,-7.3870000,7.5990000,0.000000,0,0,0
5.270,-0.0054000,0.0221000,9.6672000,32.5241000,31.2195000,30.7159000,-35.9610000,-7.5940000,7.5120000,0.000000,0,0,0
5.280,-0.0042000,0.0209000,9.6684000,32.5241000,31.2195000,30.7083000,-35.7050000,-7.5230000,7.8690000,0.000000,0,0,0
5.290,-0.0030000,0.0197000,9.6684000,32.5699000,31.2271000,30.7083000,-35.7740000,-7.3700000,8.5310000,0.000000,0,0,0
5.300,-0.0042000,0.0221000,9.6660000,32.5470000,31.2729000,30.7083000,-35.8570000,-7.2950000,8.2970000,0.000000,0,0,0
5.310,-0.0066000,0.0197000,9.6684000,32.4936000,31.3416000,30.7083000,-35.9550000,-7.4940000,8.1390000,0.000000,0,0,0
5.320,-0.0090000,0.0173000,9.6732000,32.5165000,31.3797000,30.7159000,-35.7620000,-7.2640000,8.5800000,0.000000,0,0,0
5.330,-0.0090000,0.0161000,9.6744000,32.6004000,31.3873000,30.7236000,-36.0920000,-7.5450000,8.3270000,0.000000,0,0,0
5.340,-0.0078000,0.0161000,9.6744000,32.6767000,31.3950000,30.7312000,-36.3210000,-7.3080000,8.3200000,0.000000,0,0,0
5.350,-0.0066000,0.0150000,9.6732000,32.7377000,31.4178000,30.7465000,-36.4290000,-7.5970000,7.4400000,0.000000,0,0,0
5.360,-0.0054000,0.0150000,9.6732000,32.7759000,31.4484000,30.7541000,-36.0630000,-7.2940000,7.6050000,0.000000,0,0,0
5.370,-0.0054000,0.0150000,9.6720000,32.7988000,31.4865000,30.7541000,-36.1330000,-7.3640000,8.3000000,0.000000,0,0,0
5.380,-0.0066000,0.0150000,9.6720000,32.7988000,31.5323000,30.7465000,-36.0170000,-7.3690000,7.8200000,0.000000,0,0,0
5.390,-0.0066000,0.0138000,9.6696000,32.7835000,31.5704000,30.7388000,-36.1570000,-7.5170000,7.9300000,0.000000,0,0,0
5.400,-0.0078000,0.0138000,9.6696000,32.7530000,31.5857000,30.7312000,-36.1340000,-7.1430000,8.4480000,0.000000,0,0,0
5.410,-0.0090000,0.0138000,9.6696000,32.7530000,31.5704000,30.7159000,-36.0770000,-7.2070000,8.0350000,0.000000,0,0,0
5.420,-0.0090000,0.0150000,9.6720000,32.7759000,31.5170000,30.7159000,-36.2160000,-7.1670000,8.4690000,0.000000,0,0,0
5.430,-0.0102000,0.0173000,9.6720000,32.7988000,31.4484000,30.7083000,-35.9440000,-7.4180000,8.1080000,0.000000,0,0,0
5.440,-0.0102000,0.0185000,9.6708000,32.7988000,31.3797000,30.7159000,-36.2060000,-7.5160000,8.4310000,0.000000,0,0,0
5.450,-0.0114000,0.0197000,9.6708000,32.7835000,31.3263000,30.7159000,-35.9830000,-7.1620000,8.5270000,0.000000,0,0,0
5.460,-0.0114000,0.0197000,9.6720000,32.7682000,31.2881000,30.7159000,-35.7180000,-7.4640000,9.0950000,0.000000,0,0,0
5.470,-0.0102000,0.0185000,9.6732000,32.7530000,31.2729000,30.7236000,-35.7020000,-7.3490000,8.7220000,0.000000,0,0,0
5.480,-0.0090000,0.0161000,9.6732000,32.7454000,31.2576000,30.7236000,-35.8310000,-7.5860000,8.4050000,0.000000,0,0,0
5.490,-0.0066000,0.0150000,9.6720000,32.7377000,31.2576000,30.7236000,-35.8150000,-7.3890000,8.0260000,0.000000,0,0,0
5.500,-0.0066000,0.0150000,9.6708000,32.7225000,31.2576000,30.7236000,-35.9450000,-7.1380000,8.0590000,0.000000,0,0,0
5.510,-0.0078000,0.0150000,9.6708000,32.7072000,31.2576000,30.7236000,-35.9410000,-7.4740000,8.2270000,0.000000,0,0,0
5.520,-0.0090000,0.0150000,9.6708000,32.6920000,31.2500000,30.7236000,-35.8610000,-7.0970000,8.1320000,0.000000,0,0,0
5.530,-0.0102000,0.0161000,9.6696000,32.6767000,31.2500000,30.7159000,-35.8280000,-7.1660000,8.2160000,0.000000,0,0,0
5.540,-0.0102000,0.0150000,9.6684000,32.6462000,31.2576000,30.7159000,-35.9600000,-7.3340000,8.2540000,0.000000,0,0,0
5.550,-0.0090000,0.0138000,9.6684000,32.6080000,31.2729000,30.7083000,-36.0470000,-7.1130000,8.3370000,0.000000,0,0,0
5.560,-0.0090000,0.0114000,9.6696000,32.5851000,31.3034000,30.7083000,-36.1570000,-7.0070000,8.0830000,0.000000,0,0,0
5.570,-0.0090000,0.0090000,9.6708000,32.6080000,31.3263000,30.7083000,-36.0910000,-7.3220000,8.2660000,0.000000,0,0,0
5.580,-0.0090000,0.0078000,9.6732000,32.6462000,31.3263000,30.7083000,-35.9160000,-7.1750000,7.9690000,0.000000,0,0,0
5.590,-0.0090000,0.0090000,9.6732000,32.6920000,31.3339000,30.7159000,-35.9820000,-7.4570000,7.7800000,0.000000,0,0,0
5.600,-0.0102000,0.0114000,9.6720000,32.7454000,31.3339000,30.7236000,-35.9980000,-7.3010000,7.8000000,0.000000,0,0,0
5.610,-0.0102000,0.0126000,9.6696000,32.7835000,31.3187000,30.7236000,-36.1890000,-7.4710000,7.8430000,0.000000,0,0,0
5.620,-0.0102000,0.0126000,9.6672000,32.7988000,31.3110000,30.7236000,-35.9870000,-7.6630000,7.7960000,0.000000,0,0,0
5.630,-0.0090000,0.0126000,9.6672000,32.7835000,31.3034000,30.7159000,-36.2490000,-7.3670000,7.5520000,0.000000,0,0,0
5.640,-0.0090000,0.0126000,9.6672000,32.7377000,31.3034000,30.7159000,-36.2260000,-7.3480000,7.9180000,0.000000,0,0,0
5.650,-0.0090000,0.0114000,9.6672000,32.6920000,31.3110000,30.7083000,-36.1720000,-7.3310000,7.7070000,0.000000,0,0,0
5.660,-0.0078000,0.0102000,9.6684000,32.6538000,31.3110000,30.7083000,-36.3010000,-7.1810000,7.6090000,0.000000,0,0,0
5.670,-0.0066000,0.0102000,9.6696000,32.6309000,31.3187000,30.7007000,-36.1400000,-7.2560000,7.5330000,0.000000,0,0,0
5.680,-0.0078000,0.0090000,9.6696000,32.6157000,31.3187000,30.7007000,-36.2880000,-7.4340000,7.7660000,0.000000,0,0,0
5.690,-0.0090000,0.0090000,9.6708000,32.6157000,31.3263000,30.7007000,-35.9870000,-7.3680000,8.5910000,0.000000,0,0,0
5.700,-0.0090000,0.0078000,9.6720000,32.6538000,31.3263000,30.7007000,-36.3240000,-7.3900000,7.8960000,0.000000,0,0,0
5.710,-0.0102000,0.0078000,9.6720000,32.6996000,31.3187000,30.7083000,-36.2480000,-7.4070000,8.0080000,0.000000,0,0,0
5.720,-0.0102000,0.0090000,9.6720000,32.7530000,31.3187000,30.7159000,-36.4040000,-7.4430000,8.6180000,0.000000,0,0,0
5.730,-0.0090000,0.0102000,9.6708000,32.7835000,31.3492000,30.7159000,-36.0070000,-7.4160000,8.5050000,0.000000,0,0,0
5.740,-0.0090000,0.0102000,9.6684000,32.7759000,31.4102000,30.7159000,-36.0990000,-7.6240000,7.9810000,0.000000,0,0,0
5.750,-0.0078000,0.0090000,9.6648000,32.7148000,31.5094000,30.7083000,-36.3370000,-7.2600000,7.6530000,0.000000,0,0,0
5.760,-0.0066000,0.0078000,9.6648000,32.6080000,31.6315000,30.6854000,-36.2740000,-7.4190000,7.8590000,0.000000,0,0,0
5.770,-0.0066000,0.0066000,9.6672000,32.4402000,31.8146000,30.6549000,-36.4520000,-7.6260000,8.6220000,0.000000,0,0,0
5.780,-0.0090000,0.0054000,9.6696000,32.3792000,31.8756000,30.6396000,-35.8460000,-7.6000000,8.5990000,0.000000,0,0,0
5.790,-0.0126000,0.0042000,9.6720000,32.3944000,31.8756000,30.6244000,-36.0730000,-7.1670000,8.2960000,0.000000,0,0,0
5.800,-0.0150000,0.0054000,9.6732000,32.4554000,31.8375000,30.6168000,-36.0330000,-7.5860000,8.3210000,0.000000,0,0,0
5.810,-0.0078000,0.0114000,9.6720000,32.5089000,31.7841000,30.5939000,-36.0060000,-7.6180000,8.2310000,0.000000,0,0,0
5.820,0.0724000,0.0568000,9.6720000,32.5470000,31.7307000,30.1285000,-36.2030000,-7.0230000,8.2930000,0.000000,0,0,0
5.830,0.1800000,0.0951000,9.6708000,32.5775000,31.7230000,28.7476000,-35.8870000,-7.1310000,8.5530000,0.000000,0,0,0
5.840,0.2757000,0.1214000,9.6684000,32.6004000,31.7307000,26.6495000,-36.2350000,-7.3800000,8.1160000,0.000000,0,0,0
5.850,0.3212000,0.1214000,9.6660000,32.6004000,31.7535000,24.4904000,-36.1500000,-7.1520000,8.5030000,0.000000,0,0,0
5.860,0.3547000,0.1095000,9.6648000,32.5928000,31.7612000,22.7890000,-35.9430000,-7.3590000,9.3920000,0.000000,0,0,0
5.870,0.3786000,0.0951000,9.6648000,32.5851000,31.7459000,21.6370000,-36.2260000,-6.9830000,8.4790000,0.000000,0,0,0
5.880,0.3822000,0.0796000,9.6660000,32.5928000,31.7230000,20.8511000,-36.3070000,-7.0290000,8.4150000,0.000000,0,0,0
5.890,0.3679000,0.0616000,9.6660000,32.5928000,31.7001000,20.2942000,-36.4410000,-7.1850000,8.2250000,0.000000,0,0,0
5.900,0.3368000,0.0389000,9.6648000,32.5928000,31.6849000,20.0806000,-35.9560000,-7.0430000,8.8850000,0.000000,0,0,0
5.910,0.2949000,0.0126000,9.6648000,32.5851000,31.6772000,20.5002000,-35.8910000,-7.0130000,9.1280000,0.000000,0,0,0
5.920,0.2446000,-0.0042000,9.6660000,32.5851000,31.6849000,21.5302000,-35.8960000,-7.0040000,8.4930000,0.000000,0,0,0
5.930,0.2016000,-0.0138000,9.6672000,32.6157000,31.6772000,23.0713000,-36.0910000,-7.5010000,8.2060000,0.000000,0,0,0
5.940,0.1776000,-0.0173000,9.6672000,32.6462000,31.6544000,24.9176000,-35.8180000,-7.1340000,8.5390000,0.000000,0,0,0
5.950,0.1848000,-0.0150000,9.6672000,32.6996000,31.6086000,26.8250000,-35.9850000,-7.3520000,8.0860000,0.000000,0,0,0
5.960,0.2387000,-0.0042000,9.6660000,32.7530000,31.5475000,28.5950000,-35.7320000,-7.1040000,8.6180000,0.000000,0,0,0
5.970,0.3188000,0.0150000,9.6660000,32.8140000,31.4789000,30.0903000,-35.7420000,-7.4090000,8.8530000,0.000000,0,0,0
5.980,0.3918000,0.0413000,9.6648000,32.8674000,31.4178000,31.1279000,-35.6160000,-7.4690000,8.7130000,0.000000,0,0,0
5.990,0.4384000,0.0724000,9.6648000,32.8979000,31.3644000,31.6238000,-35.5180000,-7.4650000,8.6690000,0.000000,0,0,0
6.000,0.4672000,0.1047000,9.6660000,32.9208000,31.3339000,31.5552000,-35.6190000,-7.2500000,8.4750000,0.000000,0,0,0
6.010,0.4935000,0.1322000,9.6672000,32.9285000,31.3263000,30.9830000,-35.4350000,-7.3890000,8.4730000,0.000000,0,0,0
6.020,0.5198000,0.1597000,9.6672000,32.9208000,31.3416000,30.1361000,-35.2690000,-7.4230000,7.9530000,0.000000,0,0,0
6.030,0.5258000,0.1765000,9.6660000,32.9132000,31.3644000,29.3427000,-35.5010000,-7.4340000,8.0330000,0.000000,0,0,0
6.040,0.5066000,0.1776000,9.6660000,32.8979000,31.4026000,28.8467000,-35.5540000,-7.5160000,7.8850000,0.000000,0,0,0
6.050,0.4743000,0.1669000,9.6660000,32.9056000,31.4407000,28.6255000,-35.4030000,-7.6720000,7.9660000,0.000000,0,0,0
6.060,0.4420000,0.1442000,9.6684000,32.8903000,31.4713000,28.6179000,-35.5390000,-7.5870000,8.6670000,0.000000,0,0,0
6.070,0.4384000,0.1190000,9.6684000,32.8903000,31.4636000,28.6636000,-35.3060000,-7.7690000,8.6590000,0.000000,0,0,0
6.080,0.4743000,0.0927000,9.6672000,32.8827000,31.4407000,28.7399000,-35.1770000,-7.6820000,9.1750000,0.000000,0,0,0
6.090,0.5162000,0.0664000,9.6648000,32.8979000,31.4178000,28.9230000,-35.2600000,-8.1470000,9.6770000,0.000000,0,0,0
6.100,0.5676000,0.0520000,9.6636000,32.8979000,31.4178000,29.2435000,-35.1800000,-8.1950000,9.5900000,0.000000,0,0,0
6.110,0.6358000,0.0449000,9.6636000,32.8674000,31.4331000,29.6402000,-35.1070000,-8.1640000,9.0040000,0.000000,0,0,0
6.120,0.6968000,0.0377000,9.6636000,32.8445000,31.4636000,29.9606000,-35.1110000,-8.2040000,9.6000000,0.000000,0,0,0
6.130,0.7184000,0.0269000,9.6624000,32.8293000,31.5247000,30.1132000,-34.9690000,-8.5360000,9.5080000,0.000000,0,0,0
6.140,0.6956000,0.0197000,9.6636000,32.8140000,31.5857000,30.1132000,-34.9240000,-8.2620000,9.7880000,0.000000,0,0,0
6.150,0.6514000,0.0138000,9.6636000,32.8064000,31.6162000,30.1666000,-34.9340000,-8.3140000,9.7950000,0.000000,0,0,0
6.160,0.5904000,0.0102000,9.6648000,32.8064000,31.6162000,30.4489000,-35.0080000,-8.4980000,10.1810000,0.000000,0,0,0
6.170,0.5138000,0.0090000,9.6660000,32.8217000,31.6086000,30.9601000,-34.8470000,-8.9160000,10.3300000,0.000000,0,0,0
6.180,0.4420000,0.0030000,9.6636000,32.8369000,31.6086000,31.5247000,-34.8860000,-8.8490000,10.8600000,0.000000,0,0,0
6.190,0.4049000,-0.0173000,9.6624000,32.8827000,31.6010000,32.0511000,-34.7740000,-8.9590000,10.4260000,0.000000,0,0,0
6.200,0.4157000,-0.0353000,9.6636000,32.9208000,31.5781000,32.6157000,-35.0110000,-9.0820000,10.5880000,0.000000,0,0,0
6.210,0.4217000,-0.0401000,9.6660000,32.9361000,31.5475000,33.2489000,-34.8800000,-9.4030000,9.9640000,0.000000,0,0,0
6.220,0.3858000,-0.0341000,9.6648000,32.9514000,31.5170000,33.9966000,-34.6020000,-9.5050000,10.9170000,0.000000,0,0,0
6.230,0.3475000,-0.0293000,9.6636000,32.9590000,31.4865000,34.8663000,-34.4600000,-9.8500000,11.4040000,0.000000,0,0,0
6.240,0.3260000,-0.0365000,9.6660000,32.9819000,31.4560000,35.9573000,-34.4250000,-10.1600000,10.8490000,0.000000,0,0,0
6.250,0.2817000,-0.0293000,9.6684000,33.0200000,31.4331000,37.0712000,-34.4320000,-10.6620000,10.5260000,0.000000,0,0,0
6.260,0.2434000,-0.0353000,9.6684000,33.0429000,31.4255000,37.9105000,-34.3430000,-10.3000000,10.9940000,0.000000,0,0,0
6.270,0.2123000,-0.0664000,9.6672000,33.0276000,31.4484000,38.3072000,-34.5500000,-10.8820000,11.1070000,0.000000,0,0,0
6.280,0.2626000,-0.1035000,9.6672000,33.0353000,31.4789000,38.2843000,-34.7610000,-10.8840000,11.6200000,0.000000,0,0,0
6.290,0.3714000,-0.1346000,9.6672000,33.0582000,31.5018000,38.0096000,-34.4240000,-11.2290000,11.6640000,0.000000,0,0,0
6.300,0.4995000,-0.1394000,9.6660000,33.0734000,31.5094000,37.4680000,-34.3900000,-11.2800000,12.1010000,0.000000,0,0,0
6.310,0.6011000,-0.1226000,9.6636000,33.0811000,31.5247000,36.6974000,-34.3940000,-11.6730000,12.1770000,0.000000,0,0,0
6.320,0.6358000,-0.0927000,9.6588000,33.0811000,31.5323000,35.7742000,-35.0680000,-11.8400000,12.5460000,0.000000,0,0,0
6.330,0.6394000,-0.0712000,9.6588000,33.0582000,31.5170000,34.9579000,-35.0310000,-11.8250000,13.2470000,0.000000,0,0,0
6.340,0.5820000,-0.0437000,9.6624000,33.0429000,31.5170000,34.3552000,-34.9720000,-12.1320000,13.3780000,0.000000,0,0,0
6.350,0.4504000,-0.0126000,9.6660000,33.0429000,31.5399000,33.5999000,-35.1390000,-12.4290000,13.3930000,0.000000,0,0,0
6.360,0.2997000,-0.0090000,9.6672000,33.0124000,31.6010000,32.5775000,-35.2090000,-12.4120000,13.4130000,0.000000,0,0,0
6.370,0.1944000,-0.0437000,9.6684000,32.9666000,31.6620000,31.6620000,-35.2040000,-12.7950000,13.8740000,0.000000,0,0,0
6.380,0.1501000,-0.0939000,9.6696000,32.9666000,31.6696000,31.2576000,-35.1670000,-12.5570000,13.7090000,0.000000,0,0,0
6.390,0.1621000,-0.1334000,9.6672000,33.0353000,31.6238000,31.5170000,-35.4340000,-13.3000000,13.6050000,0.000000,0,0,0
6.400,0.2339000,-0.1585000,9.6636000,33.0353000,31.6238000,32.0358000,-35.8460000,-13.2390000,13.7830000,0.000000,0,0,0
6.410,0.3427000,-0.1812000,9.6636000,32.9819000,31.6391000,32.6767000,-35.7870000,-13.1520000,14.1420000,0.000000,0,0,0
6.420,0.4576000,-0.1944000,9.6648000,32.9361000,31.6238000,33.0582000,-35.8500000,-13.4890000,13.6360000,0.000000,0,0,0
6.430,0.5389000,-0.2028000,9.6648000,32.8751000,31.6086000,32.9514000,-36.0070000,-13.2370000,14.5000000,0.000000,0,0,0
6.440,0.5545000,-0.2016000,9.6648000,32.8445000,31.6162000,32.5089000,-36.1460000,-13.8350000,14.6740000,0.000000,0,0,0
6.450,0.4911000,-0.1741000,9.6636000,32.8369000,31.6238000,31.7383000,-37.1060000,-13.3990000,14.4030000,0.000000,0,0,0
6.460,0.3918000,-0.1310000,9.6648000,32.8293000,31.6238000,30.6473000,-37.1200000,-13.8650000,14.6970000,0.000000,0,0,0
6.470,0.3128000,-0.0819000,9.6684000,32.7988000,31.6010000,29.5029000,-37.3540000,-13.9430000,15.1090000,0.000000,0,0,0
6.480,0.2363000,-0.0401000,9.6696000,32.7682000,31.5857000,28.7094000,-37.3350000,-13.9450000,14.4440000,0.000000,0,0,0
6.490,0.1394000,-0.0138000,9.6672000,32.7606000,31.6162000,28.5034000,-37.6390000,-14.3290000,14.2860000,0.000000,0,0,0
6.500,0.0437000,0.0018000,9.6648000,32.8293000,31.6391000,28.6484000,-37.9850000,-14.2470000,15.2760000,0.000000,0,0,0
6.510,0.0161000,-0.0090000,9.6672000,32.9361000,31.6315000,28.8010000,-38.1330000,-14.0140000,14.6020000,0.000000,0,0,0
6.520,0.0831000,-0.0640000,9.6708000,32.9971000,31.6391000,29.2282000,-38.5300000,-14.2320000,14.7400000,0.000000,0,0,0
6.530,0.1812000,-0.1035000,9.6672000,33.0200000,31.6391000,30.1056000,-38.4720000,-14.2330000,15.0800000,0.000000,0,0,0
6.540,0.2745000,-0.0784000,9.6612000,32.9666000,31.6162000,30.8151000,-38.7450000,-14.4140000,14.9150000,0.000000,0,0,0
6.550,0.2949000,-0.0269000,9.6588000,32.9361000,31.6315000,30.6549000,-39.1080000,-14.3750000,14.4800000,0.000000,0,0,0
6.560,0.2375000,-0.0245000,9.6600000,32.8445000,31.6544000,29.9988000,-39.4140000,-14.5750000,14.4360000,0.000000,0,0,0
6.570,0.1430000,-0.0736000,9.6636000,32.6996000,31.6315000,29.6402000,-39.7090000,-14.1820000,14.9680000,0.000000,0,0,0
6.580,0.0353000,-0.1513000,9.6660000,32.6614000,31.5704000,30.1056000,-40.2670000,-14.5700000,14.8990000,0.000000,0,0,0
6.590,-0.0544000,-0.2171000,9.6672000,32.6691000,31.4560000,31.7917000,-40.5410000,-14.5790000,14.6870000,0.000000,0,0,0
6.600,-0.1059000,-0.2207000,9.6708000,32.7301000,31.2958000,34.3781000,-40.7200000,-14.7020000,14.7280000,0.000000,0,0,0
6.610,-0.1442000,-0.1705000,9.6708000,32.7759000,31.1737000,37.1933000,-40.6460000,-14.4480000,14.5530000,0.000000,0,0,0
6.620,-0.1645000,-0.0999000,9.6672000,32.7682000,31.0898000,39.6881000,-40.2660000,-14.8340000,14.6660000,0.000000,0,0,0
6.630,-0.1513000,-0.0413000,9.6660000,32.7835000,31.0440000,41.4200000,-40.8760000,-14.6930000,14.8380000,0.000000,0,0,0
6.640,-0.0843000,-0.0138000,9.6648000,32.8140000,31.0516000,42.3126000,-41.0000000,-15.1910000,13.9010000,0.000000,0,0,0
6.650,0.0496000,0.0042000,9.6672000,32.8598000,31.0669000,42.4881000,-41.3450000,-15.2860000,14.2380000,0.000000,0,0,0
6.660,0.1800000,0.0496000,9.6696000,32.8903000,31.0898000,41.9846000,-41.4880000,-15.0930000,13.7710000,0.000000,0,0,0
6.670,0.2590000,0.1202000,9.6672000,32.9361000,31.1661000,40.7639000,-41.5340000,-14.9010000,14.6020000,0.000000,0,0,0
6.680,0.3296000,0.1621000,9.6648000,32.9971000,31.3263000,39.1388000,-41.7390000,-15.1160000,13.8520000,0.000000,0,0,0
6.690,0.4037000,0.1657000,9.6660000,32.9971000,31.5094000,37.4832000,-42.1680000,-15.0140000,13.2550000,0.000000,0,0,0
6.700,0.4061000,0.1513000,9.6684000,32.9514000,31.7307000,35.7285000,-42.3370000,-14.7020000,13.6570000,0.000000,0,0,0
6.710,0.3523000,0.1286000,9.6684000,32.8979000,31.9443000,33.6990000,-42.5480000,-14.7770000,14.2860000,0.000000,0,0,0
6.720,0.2638000,0.0927000,9.6720000,32.8522000,32.1121000,31.6849000,-42.4580000,-14.5000000,13.5150000,0.000000,0,0,0
6.730,0.1047000,0.0748000,9.6744000,32.7911000,32.2418000,30.0751000,-42.6780000,-14.8160000,14.0470000,0.000000,0,0,0
6.740,-0.0700000,0.0508000,9.6672000,32.7835000,32.3410000,29.1367000,-42.7300000,-14.5590000,13.4420000,0.000000,0,0,0
6.750,-0.1633000,-0.0006000,9.6624000,32.8827000,32.3715000,29.2358000,-42.8650000,-14.7650000,13.5260000,0.000000,0,0,0
6.760,-0.1824000,-0.0317000,9.6612000,33.0276000,32.3715000,30.2658000,-43.2520000,-14.7300000,13.4120000,0.000000,0,0,0
6.770,-0.1406000,-0.0102000,9.6600000,33.1573000,32.3486000,31.3568000,-43.4290000,-14.6500000,13.4440000,0.000000,0,0,0
6.780,-0.0413000,0.0461000,9.6624000,33.1879000,32.2113000,31.7993000,-43.7940000,-14.6140000,13.2630000,0.000000,0,0,0
6.790,0.1107000,0.1011000,9.6672000,33.1802000,32.0206000,31.4102000,-44.1210000,-14.2100000,13.6550000,0.000000,0,0,0
6.800,0.2291000,0.1573000,9.6672000,33.1726000,31.8069000,30.7083000,-44.4280000,-14.3680000,13.7730000,0.000000,0,0,0
6.810,0.2554000,0.2351000,9.6636000,33.1039000,31.6086000,29.7852000,-44.4440000,-14.1030000,13.4210000,0.000000,0,0,0
6.820,0.1836000,0.2889000,9.6624000,32.9971000,31.4560000,28.7094000,-44.6800000,-14.0750000,13.1770000,0.000000,0,0,0
6.830,0.1274000,0.2530000,9.6648000,33.0429000,31.3263000,28.0991000,-44.8500000,-13.9590000,13.5660000,0.000000,0,0,0
6.840,0.0449000,0.1872000,9.6696000,33.0200000,31.2271000,28.4805000,-45.1850000,-13.6990000,13.5350000,0.000000,0,0,0
6.850,-0.1047000,0.1477000,9.6696000,32.9590000,31.1813000,29.2358000,-45.3850000,-13.6980000,13.8510000,0.000000,0,0,0
6.860,-0.1800000,0.0831000,9.6672000,32.9208000,31.1432000,29.9988000,-45.9150000,-13.8290000,13.0660000,0.000000,0,0,0
6.870,-0.1430000,0.0078000,9.6708000,32.8979000,31.1050000,30.9296000,-46.1080000,-13.4470000,13.0130000,0.000000,0,0,0
6.880,-0.1453000,-0.0173000,9.6732000,32.8903000,31.0822000,31.9595000,-46.0570000,-13.3240000,12.2260000,0.000000,0,0,0
6.890,-0.2219000,-0.0197000,9.6696000,32.9285000,31.0669000,32.7911000,-45.9940000,-12.9290000,12.2960000,0.000000,0,0,0
6.900,-0.3547000,-0.0592000,9.6684000,32.9437000,31.0669000,33.8440000,-46.5570000,-12.6690000,12.3210000,0.000000,0,0,0
6.910,-0.5629000,-0.0772000,9.6744000,32.9208000,31.0898000,35.1562000,-46.7300000,-13.0250000,12.1790000,0.000000,0,0,0
6.920,-0.7578000,-0.0568000,9.6816000,32.8827000,31.1661000,36.0031000,-46.7030000,-12.3920000,12.4910000,0.000000,0,0,0
6.930,-0.9134000,-0.0329000,9.6852000,32.8751000,31.2347000,36.3159000,-46.9440000,-12.5340000,11.7020000,0.000000,0,0,0
6.940,-0.9983000,0.0030000,9.6852000,32.7988000,31.3110000,36.3922000,-47.0770000,-12.4180000,11.6220000,0.000000,0,0,0
6.950,-0.9792000,0.0580000,9.6852000,32.7454000,31.3263000,36.2930000,-47.0170000,-12.0330000,11.8360000,0.000000,0,0,0
6.960,-0.8559000,0.1095000,9.6840000,32.8217000,31.2500000,35.9344000,-46.8680000,-11.8340000,11.7710000,0.000000,0,0,0
6.970,-0.7327000,0.1334000,9.6780000,32.9132000,31.1584000,35.4156000,-47.0600000,-11.5510000,12.1020000,0.000000,0,0,0
6.980,-0.6885000,0.1154000,9.6672000,32.9666000,31.0898000,33.9966000,-47.5670000,-11.5220000,11.3250000,0.000000,0,0,0
6.990,-0.7447000,0.0700000,9.6708000,32.9132000,31.0898000,32.2037000,-47.6400000,-11.3150000,10.8200000,0.000000,0,0,0
7.000,-0.8619000,0.0090000,9.6780000,32.8751000,31.1356000,30.1361000,-47.5480000,-11.3960000,10.2730000,0.000000,0,0,0
7.010,-1.0222000,-0.0425000,9.6792000,32.8598000,31.1737000,28.4958000,-47.5870000,-11.1170000,10.6300000,0.000000,0,0,0
7.020,-1.1562000,-0.0676000,9.6768000,32.8445000,31.2271000,27.7328000,-47.3920000,-10.6780000,10.7530000,0.000000,0,0,0
7.030,-1.2196000,-0.0484000,9.6780000,32.8827000,31.2805000,27.8320000,-47.6680000,-10.7180000,10.3940000,0.000000,0,0,0
7.040,-1.2160000,-0.0102000,9.6840000,32.9361000,31.3492000,28.4805000,-47.7710000,-10.4840000,10.6980000,0.000000,0,0,0
7.050,-1.1849000,0.0293000,9.6840000,32.9590000,31.3950000,29.1748000,-47.9850000,-10.7790000,10.7240000,0.000000,0,0,0
7.060,-1.1502000,0.0473000,9.6816000,32.9819000,31.4331000,29.6021000,-47.9140000,-10.4760000,10.1820000,0.000000,0,0,0
7.070,-1.1215000,0.0473000,9.6816000,32.9742000,31.4713000,29.7470000,-48.1260000,-10.2740000,10.2580000,0.000000,0,0,0
7.080,-1.0988000,0.0329000,9.6840000,32.9819000,31.4865000,29.7165000,-47.8370000,-10.3420000,10.3460000,0.000000,0,0,0
7.090,-1.0438000,0.0030000,9.6828000,32.9666000,31.4789000,29.8309000,-47.7040000,-10.1670000,9.4490000,0.000000,0,0,0
7.100,-0.9923000,-0.0317000,9.6804000,32.9437000,31.4865000,30.4337000,-47.8200000,-9.8590000,9.9150000,0.000000,0,0,0
7.110,-0.9337000,-0.0616000,9.6768000,32.9590000,31.4789000,31.6696000,-47.8080000,-9.7680000,10.1470000,0.000000,0,0,0
7.120,-0.8404000,-0.0724000,9.6756000,32.9590000,31.4865000,33.0429000,-47.9670000,-9.9710000,10.3800000,0.000000,0,0,0
7.130,-0.7160000,-0.0736000,9.6768000,32.9666000,31.4789000,34.2102000,-47.9340000,-9.8370000,10.4390000,0.000000,0,0,0
7.140,-0.5940000,-0.0640000,9.6756000,32.9819000,31.4713000,35.1486000,-47.9550000,-10.0080000,10.9590000,0.000000,0,0,0
7.150,-0.5126000,-0.0413000,9.6708000,32.9895000,31.4713000,35.6979000,-47.8580000,-9.9470000,10.5590000,0.000000,0,0,0
7.160,-0.4947000,-0.0185000,9.6696000,33.0048000,31.4713000,35.8810000,-47.6430000,-10.1190000,10.7530000,0.000000,0,0,0
7.170,-0.5497000,-0.0066000,9.6744000,33.0124000,31.4789000,36.0565000,-47.6860000,-9.6520000,10.3480000,0.000000,0,0,0
7.180,-0.6119000,-0.0018000,9.6792000,33.0276000,31.4865000,36.2854000,-47.7710000,-10.1110000,10.8790000,0.000000,0,0,0
7.190,-0.6310000,0.0018000,9.6804000,33.0276000,31.4865000,36.4532000,-47.4940000,-9.9760000,10.8170000,0.000000,0,0,0
7.200,-0.5796000,0.0126000,9.6780000,32.9895000,31.4865000,36.4075000,-47.6350000,-9.8090000,9.8490000,0.000000,0,0,0
7.210,-0.4935000,0.0341000,9.6756000,32.9590000,31.4713000,36.0260000,-47.7590000,-9.9130000,10.4450000,0.000000,0,0,0
7.220,-0.3906000,0.0568000,9.6756000,32.9514000,31.4560000,35.2707000,-47.4510000,-9.7110000,10.0670000,0.000000,0,0,0
7.230,-0.3116000,0.0664000,9.6744000,32.9437000,31.4407000,34.2636000,-47.5710000,-9.7740000,9.7200000,0.000000,0,0,0
7.240,-0.3068000,0.0568000,9.6732000,32.9437000,31.4407000,33.2642000,-47.7900000,-9.7990000,10.1820000,0.000000,0,0,0
7.250,-0.3679000,0.0365000,9.6720000,32.9514000,31.4560000,32.4097000,-47.4160000,-9.6530000,9.2730000,0.000000,0,0,0
7.260,-0.4396000,0.0102000,9.6744000,32.9361000,31.4636000,31.8222000,-47.6410000,-9.4990000,10.5440000,0.000000,0,0,0
7.270,-0.4779000,-0.0090000,9.6756000,32.9285000,31.4636000,31.5323000,-47.4470000,-9.6270000,9.8060000,0.000000,0,0,0
7.280,-0.4779000,-0.0138000,9.6744000,32.9132000,31.4713000,31.5094000,-47.8410000,-9.6860000,9.7630000,0.000000,0,0,0
7.290,-0.4468000,-0.0066000,9.6708000,32.9132000,31.4636000,31.6238000,-47.6330000,-9.3970000,9.7760000,0.000000,0,0,0
7.300,-0.4037000,0.0054000,9.6684000,32.9208000,31.4560000,31.7154000,-47.4040000,-9.5680000,9.5540000,0.000000,0,0,0
7.310,-0.3667000,0.0126000,9.6684000,32.9285000,31.4407000,31.6391000,-47.6720000,-9.5020000,10.2240000,0.000000,0,0,0
7.320,-0.3571000,0.0102000,9.6696000,32.9361000,31.4331000,31.4941000,-47.3770000,-9.5500000,9.4790000,0.000000,0,0,0
7.330,-0.3679000,0.0030000,9.6696000,32.9285000,31.4178000,31.2881000,-47.3400000,-9.5340000,9.6830000,0.000000,0,0,0
7.340,-0.3750000,-0.0066000,9.6708000,32.9208000,31.4026000,31.0669000,-47.7070000,-9.4570000,9.5710000,0.000000,0,0,0
7.350,-0.3619000,-0.0173000,9.6732000,32.9132000,31.3797000,30.9753000,-47.2980000,-9.4050000,9.3680000,0.000000,0,0,0
7.360,-0.3260000,-0.0245000,9.6732000,32.8979000,31.3721000,31.0822000,-47.4170000,-9.5960000,9.5990000,0.000000,0,0,0
7.370,-0.2805000,-0.0209000,9.6708000,32.8979000,31.3644000,31.3644000,-47.6400000,-9.5120000,9.4300000,0.000000,0,0,0
7.380,-0.2458000,-0.0102000,9.6684000,32.9132000,31.3644000,31.7154000,-47.5690000,-9.6490000,9.8050000,0.000000,0,0,0
7.390,-0.2363000,-0.0006000,9.6696000,32.9208000,31.3644000,32.0129000,-47.6610000,-9.6200000,10.3040000,0.000000,0,0,0
7.400,-0.2470000,0.0066000,9.6720000,32.9285000,31.3644000,32.1884000,-47.6980000,-9.5430000,9.7030000,0.000000,0,0,0
7.410,-0.2937000,0.0114000,9.6720000,32.9208000,31.3644000,32.2189000,-47.4790000,-9.4940000,9.7510000,0.000000,0,0,0
7.420,-0.3571000,0.0102000,9.6708000,32.9132000,31.3644000,32.1350000,-47.5550000,-9.6850000,9.9410000,0.000000,0,0,0
7.430,-0.3882000,0.0054000,9.6720000,32.9132000,31.3568000,31.9901000,-47.8060000,-9.5640000,9.7320000,0.000000,0,0,0
7.440,-0.3738000,-0.0006000,9.6756000,32.9132000,31.3568000,31.9214000,-47.9600000,-9.6840000,9.7700000,0.000000,0,0,0
7.450,-0.2913000,-0.0054000,9.6744000,32.9056000,31.3644000,31.9901000,-47.3020000,-9.3950000,9.6640000,0.000000,0,0,0
7.460,-0.1669000,-0.0102000,9.6720000,32.9132000,31.3644000,32.2571000,-47.3570000,-9.5430000,9.9790000,0.000000,0,0,0
7.470,-0.0640000,-0.0078000,9.6696000,32.9208000,31.3721000,32.6843000,-47.3770000,-9.5230000,10.5280000,0.000000,0,0,0
7.480,0.0054000,-0.0042000,9.6720000,32.9285000,31.3797000,33.0353000,-47.4710000,-9.4130000,10.2520000,0.000000,0,0,0
7.490,0.0078000,0.0018000,9.6756000,32.9285000,31.3797000,33.1650000,-47.4010000,-9.3930000,10.2780000,0.000000,0,0,0
7.500,-0.0305000,0.0042000,9.6744000,32.9285000,31.3644000,33.0887000,-47.2610000,-9.7710000,9.8610000,0.000000,0,0,0
7.510,-0.0855000,0.0054000,9.6732000,32.9361000,31.3416000,32.9514000,-47.5080000,-9.4960000,9.6180000,0.000000,0,0,0
7.520,-0.1442000,0.0054000,9.6720000,32.9437000,31.3187000,32.7835000,-47.1400000,-9.6280000,10.0750000,0.000000,0,0,0
7.530,-0.1741000,0.0066000,9.6720000,32.9361000,31.3034000,32.5623000,-47.3080000,-9.7900000,10.2760000,0.000000,0,0,0
7.540,-0.1621000,0.0042000,9.6684000,32.9285000,31.3034000,32.3105000,-47.4440000,-9.6100000,10.1220000,0.000000,0,0,0
7.550,-0.1178000,0.0042000,9.6636000,32.9208000,31.3110000,32.0663000,-47.3330000,-9.5060000,10.3880000,0.000000,0,0,0
7.560,-0.0532000,0.0054000,9.6648000,32.9132000,31.3263000,31.7612000,-47.1590000,-9.5400000,10.0820000,0.000000,0,0,0
7.570,-0.0150000,0.0078000,9.6684000,32.8979000,31.3492000,31.3644000,-46.9160000,-9.3320000,10.1790000,0.000000,0,0,0
7.580,-0.0173000,0.0090000,9.6684000,32.8827000,31.3644000,30.8838000,-47.3640000,-9.3200000,10.1850000,0.000000,0,0,0
7.590,-0.0556000,0.0066000,9.6684000,32.8751000,31.3797000,30.4031000,-47.3880000,-9.3960000,9.3100000,0.000000,0,0,0
7.600,-0.1430000,0.0042000,9.6684000,32.8598000,31.3950000,30.0903000,-47.1810000,-9.3610000,9.5510000,0.000000,0,0,0
7.610,-0.2267000,0.0006000,9.6696000,32.8522000,31.4102000,29.9911000,-47.3230000,-9.2940000,9.6120000,0.000000,0,0,0
7.620,-0.2745000,-0.0030000,9.6708000,32.8522000,31.4484000,30.2429000,-47.2610000,-9.4190000,9.7880000,0.000000,0,0,0
7.630,-0.2757000,-0.0018000,9.6684000,32.8598000,31.4636000,30.5405000,-47.0930000,-9.2140000,9.5030000,0.000000,0,0,0
7.640,-0.2530000,0.0018000,9.6696000,32.8598000,31.4789000,30.8228000,-47.0970000,-9.4690000,9.7380000,0.000000,0,0,0
7.650,-0.2267000,0.0030000,9.6732000,32.8598000,31.4789000,31.0440000,-47.3940000,-9.3870000,9.3650000,0.000000,0,0,0
7.660,-0.2099000,0.0066000,9.6744000,32.8598000,31.4865000,31.1584000,-47.1990000,-9.5150000,9.8170000,0.000000,0,0,0
7.670,-0.1920000,0.0078000,9.6744000,32.8598000,31.4865000,31.1584000,-47.3170000,-9.2960000,9.5600000,0.000000,0,0,0
7.680,-0.1657000,0.0078000,9.6756000,32.8598000,31.4865000,31.0822000,-47.1260000,-9.5630000,9.5520000,0.000000,0,0,0
7.690,-0.1334000,0.0042000,9.6756000,32.8598000,31.4865000,30.9753000,-47.0290000,-9.7620000,9.8390000,0.000000,0,0,0
7.700,-0.0855000,-0.0006000,9.6744000,32.8751000,31.4789000,30.8914000,-47.0090000,-9.7490000,9.7900000,0.000000,0,0,0
7.710,-0.0425000,-0.0030000,9.6708000,32.8827000,31.4789000,30.8533000,-47.2310000,-9.3960000,9.7860000,0.000000,0,0,0
7.720,-0.0233000,-0.0042000,9.6684000,32.8827000,31.4636000,30.8685000,-47.2290000,-9.8480000,9.8410000,0.000000,0,0,0
7.730,-0.0401000,-0.0018000,9.6684000,32.8827000,31.4484000,30.8685000,-47.1190000,-9.6640000,9.6220000,0.000000,0,0,0
7.740,-11.6106000,5.5251000,0.0000000,32.2037000,30.8151000,30.2963000,-47.1510000,-9.5890000,9.7130000,0.000000,0,0,0
7.750,-0.1130000,0.0030000,9.6696000,32.8751000,31.4102000,30.7922000,-47.5490000,-9.5860000,9.0590000,0.000000,0,0,0
7.760,-0.1310000,0.0042000,9.6696000,32.8674000,31.3873000,30.7388000,-47.1770000,-9.7580000,8.8800000,0.000000,0,0,0
7.770,-0.1298000,0.0018000,9.6696000,32.8674000,31.3721000,30.7007000,-47.1510000,-9.5300000,9.4630000,0.000000,0,0,0
7.780,-0.1202000,0.0018000,9.6684000,32.8674000,31.3644000,30.7007000,-47.0740000,-9.5330000,9.1640000,0.000000,0,0,0
7.790,-0.1130000,0.0030000,9.6684000,32.8751000,31.3568000,30.7083000,-47.1720000,-9.5800000,9.5110000,0.000000,0,0,0
7.800,-0.1059000,0.0018000,9.6696000,32.8751000,31.3568000,30.7236000,-47.3570000,-9.6670000,9.4190000,0.000000,0,0,0
7.810,-0.1011000,0.0018000,9.6732000,32.8751000,31.3492000,30.7312000,-46.9190000,-9.4510000,9.4200000,0.000000,0,0,0
7.820,-0.0963000,0.0030000,9.6756000,32.8827000,31.3416000,30.7312000,-47.4120000,-9.5630000,9.7480000,0.000000,0,0,0
7.830,-0.0903000,0.0042000,9.6756000,32.8827000,31.3416000,30.7236000,-47.4140000,-9.8240000,9.6770000,0.000000,0,0,0
7.840,-0.0831000,0.0030000,9.6732000,32.8827000,31.3339000,30.7159000,-47.3560000,-9.8020000,10.5580000,0.000000,0,0,0
7.850,-0.0784000,0.0042000,9.6708000,32.8751000,31.3339000,30.7159000,-47.1140000,-9.8820000,9.7420000,0.000000,0,0,0
7.860,-0.0748000,0.0042000,9.6720000,32.8751000,31.3339000,30.7083000,-46.9790000,-9.7180000,10.0320000,0.000000,0,0,0
7.870,-0.0736000,0.0042000,9.6732000,32.8751000,31.3339000,30.7007000,-47.0260000,-9.6860000,9.8680000,0.000000,0,0,0
7.880,-0.0724000,0.0042000,9.6732000,32.8751000,31.3416000,30.7007000,-47.2540000,-9.5700000,9.8930000,0.000000,0,0,0
7.890,-0.0724000,0.0042000,9.6732000,32.8751000,31.3416000,30.7007000,-47.1110000,-9.4770000,9.7400000,0.000000,0,0,0
7.900,-0.0736000,0.0030000,9.6744000,32.8751000,31.3492000,30.7083000,-47.1660000,-9.4900000,10.3000000,0.000000,0,0,0
7.910,-0.0736000,0.0030000,9.6756000,32.8751000,31.3416000,30.7083000,-47.0850000,-9.3200000,10.7150000,0.000000,0,0,0
7.920,-0.0748000,0.0018000,9.6744000,32.8827000,31.3339000,30.7083000,-47.1800000,-9.1630000,10.1770000,0.000000,0,0,0
7.930,-0.0748000,-0.0006000,9.6720000,32.8751000,31.3187000,30.7007000,-47.0020000,-9.3240000,9.8700000,0.000000,0,0,0
7.940,-0.0760000,-0.0006000,9.6696000,32.8751000,31.3110000,30.7007000,-47.3340000,-9.4220000,10.1710000,0.000000,0,0,0
7.950,-0.0772000,-0.0006000,9.6696000,32.8674000,31.3034000,30.7007000,-47.1520000,-9.5380000,9.8920000,0.000000,0,0,0
7.960,-0.0772000,-0.0006000,9.6708000,32.8598000,31.3034000,30.7007000,-47.4560000,-9.5650000,10.1070000,0.000000,0,0,0
7.970,-0.0772000,0.0006000,9.6720000,32.8522000,31.3110000,30.7007000,-46.8840000,-9.4510000,9.7850000,0.000000,0,0,0
7.980,-0.0772000,0.0018000,9.6720000,32.8522000,31.3187000,30.7007000,-47.0530000,-9.2530000,10.3780000,0.000000,0,0,0
7.990,-0.0760000,0.0018000,9.6720000,32.8598000,31.3187000,30.7083000,-46.8940000,-9.4320000,9.7660000,0.000000,0,0,0
8.000,-0.0772000,0.0018000,9.6720000,32.8598000,31.3110000,30.7159000,-47.1270000,-9.3200000,9.5470000,0.000000,0,0,0
8.010,-0.0784000,0.0018000,9.6708000,32.8674000,31.3034000,30.7159000,-47.1250000,-9.2610000,9.7010000,0.000000,0,0,0
8.020,-0.0784000,0.0018000,9.6708000,32.8751000,31.2881000,30.7236000,-47.2400000,-9.3030000,10.1230000,0.000000,0,0,0
8.030,-0.0796000,0.0018000,9.6708000,32.8751000,31.2729000,30.7236000,-47.2230000,-9.3160000,9.4210000,0.000000,0,0,0
8.040,-0.0796000,0.0006000,9.6708000,32.8751000,31.2653000,30.7236000,-47.3440000,-9.2350000,10.1400000,0.000000,0,0,0
8.050,-0.0784000,-0.0006000,9.6720000,32.8751000,31.2729000,30.7159000,-47.3190000,-9.3840000,10.0130000,0.000000,0,0,0
8.060,-0.0760000,-0.0006000,9.6708000,32.8751000,31.2805000,30.7236000,-46.9430000,-9.5090000,9.9340000,0.000000,0,0,0
8.070,-0.0736000,-0.0006000,9.6720000,32.8751000,31.2958000,30.7236000,-46.9470000,-9.3180000,9.7630000,0.000000,0,0,0
8.080,-0.0736000,0.0006000,9.6744000,32.8751000,31.3034000,30.7236000,-47.4270000,-9.4860000,10.4890000,0.000000,0,0,0
8.090,-0.0748000,0.0006000,9.6744000,32.8751000,31.3110000,30.7312000,-46.9630000,-9.5580000,10.1570000,0.000000,0,0,0
8.100,-0.0748000,0.0006000,9.6744000,32.8751000,31.3187000,30.7388000,-46.8240000,-9.2820000,10.1120000,0.000000,0,0,0
8.110,-0.0736000,-0.0006000,9.6732000,32.8827000,31.3339000,30.7388000,-47.1920000,-9.3790000,9.8910000,0.000000,0,0,0
8.120,-0.0724000,-0.0018000,9.6720000,32.8827000,31.3416000,30.7312000,-47.1170000,-9.4900000,10.4820000,0.000000,0,0,0
8.130,-0.0724000,-0.0018000,9.6708000,32.8751000,31.3568000,30.7236000,-47.1370000,-9.5320000,10.6080000,0.000000,0,0,0
8.140,-0.0736000,-0.0018000,9.6708000,32.8751000,31.3644000,30.7236000,-47.0610000,-9.4110000,10.2930000,0.000000,0,0,0
8.150,-0.0748000,0.0006000,9.6708000,32.8827000,31.3644000,30.7236000,-47.2120000,-9.5350000,9.2800000,0.000000,0,0,0
8.160,-0.0748000,0.0018000,9.6720000,32.8827000,31.3568000,30.7159000,-47.0580000,-9.1650000,9.5970000,0.000000,0,0,0
8.170,-0.0724000,0.0030000,9.6720000,32.8827000,31.3416000,30.7159000,-47.2720000,-9.2430000,9.2050000,0.000000,0,0,0
8.180,-0.0712000,0.0042000,9.6732000,32.8903000,31.3263000,30.7083000,-47.3000000,-9.3930000,9.7450000,0.000000,0,0,0
8.190,-0.0724000,0.0030000,9.6732000,32.8827000,31.3110000,30.7083000,-46.9530000,-9.3410000,9.8480000,0.000000,0,0,0
8.200,-0.0736000,0.0006000,9.6732000,32.8751000,31.2958000,30.7083000,-46.8980000,-9.5650000,9.3870000,0.000000,0,0,0
8.210,-0.0748000,-0.0006000,9.6720000,32.8674000,31.2805000,30.7083000,-46.9720000,-9.3870000,9.6540000,0.000000,0,0,0
8.220,-0.0748000,-0.0006000,9.6696000,32.8598000,31.2805000,30.7083000,-46.9550000,-9.3420000,10.0630000,0.000000,0,0,0
8.230,-0.0724000,-0.0006000,9.6696000,32.8522000,31.2805000,30.7083000,-47.3780000,-9.3140000,9.5450000,0.000000,0,0,0
8.240,-0.0724000,0.0006000,9.6708000,32.8598000,31.2805000,30.7159000,-47.3350000,-9.5430000,9.6920000,0.000000,0,0,0
8.250,-0.0724000,-0.0006000,9.6720000,32.8598000,31.2805000,30.7236000,-47.1190000,-9.2980000,9.4230000,0.000000,0,0,0
8.260,-0.0736000,-0.0006000,9.6720000,32.8674000,31.2729000,30.7236000,-47.3410000,-9.5510000,9.5980000,0.000000,0,0,0
8.270,-0.0748000,-0.0006000,9.6732000,32.8751000,31.2653000,30.7159000,-47.4670000,-9.2170000,10.0170000,0.000000,0,0,0
8.280,-0.0748000,0.0006000,9.6744000,32.8674000,31.2653000,30.7083000,-47.2540000,-9.4990000,9.7220000,0.000000,0,0,0
8.290,-0.0760000,0.0018000,9.6744000,32.8674000,31.2805000,30.7083000,-47.3130000,-9.2200000,9.3380000,0.000000,0,0,0
8.300,-0.0760000,0.0018000,9.6732000,32.8674000,31.2958000,30.7083000,-47.6220000,-9.3150000,9.8450000,0.000000,0,0,0
8.310,-0.0748000,0.0018000,9.6720000,32.8674000,31.3034000,30.7007000,-47.1610000,-9.2680000,9.9760000,0.000000,0,0,0
8.320,-0.0748000,0.0018000,9.6720000,32.8674000,31.3110000,30.7007000,-47.2890000,-9.2530000,9.8010000,0.000000,0,0,0
8.330,-0.0748000,0.0018000,9.6732000,32.8674000,31.3187000,30.7007000,-47.0710000,-9.2780000,10.3960000,0.000000,0,0,0
8.340,-0.0736000,0.0030000,9.6720000,32.8674000,31.3187000,30.7083000,-47.1460000,-9.3910000,10.5090000,0.000000,0,0,0
8.350,-0.0748000,0.0030000,9.6732000,32.8674000,31.3187000,30.7159000,-46.8800000,-9.5030000,9.7360000,0.000000,0,0,0
8.360,-0.0748000,0.0018000,9.6744000,32.8674000,31.3110000,30.7236000,-47.1730000,-9.4320000,9.9950000,0.000000,0,0,0
8.370,-0.0736000,0.0006000,9.6756000,32.8751000,31.3034000,30.7236000,-47.0500000,-9.1430000,9.3620000,0.000000,0,0,0
8.380,-0.0724000,-0.0006000,9.6756000,32.8751000,31.3034000,30.7236000,-47.3400000,-9.4340000,9.5190000,0.000000,0,0,0
8.390,-0.0724000,-0.0006000,9.6756000,32.8751000,31.3110000,30.7159000,-47.1790000,-9.2650000,9.6070000,0.000000,0,0,0
8.400,-0.0724000,-0.0006000,9.6768000,32.8827000,31.3263000,30.7159000,-47.2350000,-9.4160000,9.6120000,0.000000,0,0,0
8.410,-0.0748000,0.0006000,9.6768000,32.8903000,31.3416000,30.7083000,-47.0850000,-9.1130000,9.2530000,0.000000,0,0,0
8.420,-0.0760000,0.0018000,9.6768000,32.8903000,31.3568000,30.7083000,-47.5190000,-9.7360000,10.0450000,0.000000,0,0,0
8.430,-0.0772000,0.0030000,9.6756000,32.8979000,31.3644000,30.7159000,-47.2190000,-9.3340000,10.0390000,0.000000,0,0,0
8.440,-0.0772000,0.0018000,9.6744000,32.8979000,31.3644000,30.7159000,-47.1850000,-9.6940000,9.3440000,0.000000,0,0,0
8.450,-0.0772000,0.0006000,9.6744000,32.8979000,31.3568000,30.7159000,-47.2430000,-9.2140000,9.5000000,0.000000,0,0,0
8.460,-0.0772000,-0.0018000,9.6732000,32.8979000,31.3416000,30.7159000,-47.0730000,-9.6460000,10.3920000,0.000000,0,0,0
8.470,-0.0772000,-0.0030000,9.6732000,32.8979000,31.3263000,30.7159000,-46.8570000,-9.3870000,9.3230000,0.000000,0,0,0
8.480,-0.0760000,-0.0018000,9.6732000,32.8979000,31.3187000,30.7159000,-46.9630000,-9.2980000,9.3740000,0.000000,0,0,0
8.490,-0.0736000,-0.0018000,9.6744000,32.8979000,31.3187000,30.7159000,-47.0750000,-8.9740000,9.7940000,0.000000,0,0,0
8.500,-0.0748000,-0.0018000,9.6768000,32.8903000,31.3187000,30.7159000,-47.3150000,-9.4440000,9.8510000,0.000000,0,0,0
8.510,-0.0748000,-0.0006000,9.6780000,32.8903000,31.3339000,30.7236000,-46.8590000,-9.1800000,9.7320000,0.000000,0,0,0
8.520,-0.0736000,0.0006000,9.6756000,32.8903000,31.3416000,30.7312000,-47.1450000,-9.2240000,10.5460000,0.000000,0,0,0
8.530,-0.0724000,0.0018000,9.6756000,32.8979000,31.3492000,30.7388000,-47.2630000,-9.8300000,10.3050000,0.000000,0,0,0
8.540,-0.0724000,0.0030000,9.6756000,32.9056000,31.3568000,30.7465000,-47.2210000,-9.4720000,9.9730000,0.000000,0,0,0
8.550,-0.0736000,0.0018000,9.6744000,32.9056000,31.3721000,30.7541000,-47.1160000,-9.2510000,9.3600000,0.000000,0,0,0
8.560,-0.0736000,0.0006000,9.6732000,32.9056000,31.3721000,30.7541000,-47.1300000,-9.6390000,9.6650000,0.000000,0,0,0
8.570,-0.0736000,-0.0030000,9.6732000,32.8979000,31.3644000,30.7541000,-47.0810000,-9.6470000,9.9450000,0.000000,0,0,0
8.580,-0.0748000,-0.0042000,9.6744000,32.8903000,31.3568000,30.7465000,-47.3790000,-9.3740000,9.2890000,0.000000,0,0,0
8.590,-0.0772000,-0.0030000,9.6756000,32.8751000,31.3568000,30.7312000,-47.2230000,-9.1660000,9.3400000,0.000000,0,0,0
8.600,-0.0760000,-0.0018000,9.6756000,32.8751000,31.3492000,30.7236000,-47.2050000,-9.5420000,9.2870000,0.000000,0,0,0
8.610,-0.0748000,-0.0018000,9.6744000,32.8827000,31.3568000,30.7159000,-47.1770000,-9.2260000,9.0150000,0.000000,0,0,0
8.620,-0.0748000,-0.0006000,9.6768000,32.8827000,31.3644000,30.7159000,-47.3280000,-9.6090000,9.2210000,0.000000,0,0,0
8.630,-0.0736000,0.0006000,9.6792000,32.8827000,31.3721000,30.7159000,-47.3650000,-9.3800000,10.1220000,0.000000,0,0,0
8.640,-0.0736000,0.0018000,9.6792000,32.8827000,31.3721000,30.7159000,-47.6210000,-9.0780000,10.3350000,0.000000,0,0,0
8.650,-0.0736000,0.0006000,9.6756000,32.8827000,31.3644000,30.7159000,-47.3390000,-9.2530000,9.5290000,0.000000,0,0,0
8.660,-0.0736000,-0.0006000,9.6744000,32.8827000,31.3568000,30.7159000,-46.9990000,-9.6590000,9.8750000,0.000000,0,0,0
8.670,-0.0748000,0.0006000,9.6756000,32.8827000,31.3568000,30.7236000,-47.0900000,-9.6560000,9.2670000,0.000000,0,0,0
8.680,-0.0760000,0.0006000,9.6768000,32.8827000,31.3568000,30.7236000,-47.0880000,-9.5260000,9.5540000,0.000000,0,0,0
8.690,-0.0760000,0.0018000,9.6756000,32.8903000,31.3568000,30.7236000,-47.2980000,-9.3840000,9.5050000,0.000000,0,0,0
8.700,-0.0772000,0.0030000,9.6756000,32.8903000,31.3492000,30.7236000,-47.0510000,-9.3930000,8.9510000,0.000000,0,0,0
8.710,-0.0772000,0.0042000,9.6756000,32.8903000,31.3492000,30.7236000,-47.2180000,-9.6280000,8.7630000,0.000000,0,0,0
8.720,-0.0772000,0.0054000,9.6744000,32.8903000,31.3492000,30.7159000,-47.4430000,-9.3290000,9.2860000,0.000000,0,0,0
8.730,-0.0760000,0.0054000,9.6720000,32.8903000,31.3492000,30.7083000,-47.2290000,-9.2700000,9.1570000,0.000000,0,0,0
8.740,-0.0760000,0.0042000,9.6708000,32.8903000,31.3492000,30.7083000,-47.3010000,-9.4950000,9.5110000,0.000000,0,0,0
8.750,-0.0760000,0.0030000,9.6720000,32.8903000,31.3492000,30.7159000,-47.1160000,-9.4900000,9.2100000,0.000000,0,0,0
8.760,-0.0760000,0.0006000,9.6732000,32.8751000,31.3416000,30.7236000,-47.2510000,-9.5310000,9.6230000,0.000000,0,0,0
8.770,-0.0760000,-0.0006000,9.6732000,32.8751000,31.3339000,30.7236000,-47.2090000,-9.4740000,9.3190000,0.000000,0,0,0
8.780,-0.0772000,-0.0006000,9.6720000,32.8827000,31.3263000,30.7312000,-47.1050000,-9.5500000,9.7180000,0.000000,0,0,0
8.790,-0.0784000,-0.0006000,9.6720000,32.8827000,31.3187000,30.7312000,-47.0860000,-9.6090000,9.4330000,0.000000,0,0,0
8.800,-0.0784000,0.0006000,9.6720000,32.8903000,31.3110000,30.7312000,-47.1830000,-9.4180000,9.7750000,0.000000,0,0,0
8.810,-0.0784000,0.0006000,9.6720000,32.8979000,31.3034000,30.7312000,-47.2270000,-9.5720000,9.6070000,0.000000,0,0,0
8.820,-0.0796000,-0.0018000,9.6720000,32.8903000,31.3034000,30.7388000,-47.1610000,-9.7850000,9.3440000,0.000000,0,0,0
8.830,-0.0784000,-0.0042000,9.6732000,32.8903000,31.3110000,30.7388000,-47.1380000,-9.5390000,10.0210000,0.000000,0,0,0
8.840,-0.0784000,-0.0042000,9.6744000,32.8827000,31.3187000,30.7465000,-47.0450000,-9.8560000,9.5600000,0.000000,0,0,0
8.850,-0.0784000,-0.0054000,9.6744000,32.8827000,31.3339000,30.7465000,-46.9790000,-9.3800000,9.7450000,0.000000,0,0,0
8.860,-0.0784000,-0.0054000,9.6756000,32.8827000,31.3492000,30.7465000,-47.1840000,-9.5420000,9.6370000,0.000000,0,0,0
8.870,-0.0784000,-0.0042000,9.6756000,32.8979000,31.3568000,30.7465000,-47.1320000,-9.4820000,9.9530000,0.000000,0,0,0
8.880,-0.0784000,-0.0018000,9.6732000,32.8979000,31.3568000,30.7388000,-47.1670000,-9.5470000,10.1390000,0.000000,0,0,0
8.890,-0.0784000,-0.0006000,9.6720000,32.8979000,31.3644000,30.7312000,-47.0000000,-9.4720000,10.3150000,0.000000,0,0,0
8.900,-0.0784000,-0.0006000,9.6744000,32.8979000,31.3721000,30.7236000,-47.0540000,-9.4570000,10.0680000,0.000000,0,0,0
8.910,-0.0772000,-0.0006000,9.6756000,32.8979000,31.3721000,30.7236000,-46.8350000,-9.4370000,9.6150000,0.000000,0,0,0
8.920,-0.0772000,-0.0018000,9.6756000,32.8903000,31.3644000,30.7159000,-47.1800000,-9.3160000,10.1060000,0.000000,0,0,0
8.930,-0.0772000,-0.0018000,9.6744000,32.8827000,31.3492000,30.7159000,-46.9670000,-9.2660000,9.3390000,0.000000,0,0,0
8.940,-0.0772000,-0.0006000,9.6732000,32.8751000,31.3416000,30.7159000,-47.1160000,-9.4320000,9.9970000,0.000000,0,0,0
8.950,-0.0772000,-0.0006000,9.6720000,32.8674000,31.3416000,30.7236000,-47.3380000,-9.1220000,10.1360000,0.000000,0,0,0
8.960,-0.0784000,0.0006000,9.6720000,32.8751000,31.3416000,30.7236000,-47.1740000,-9.3600000,9.9200000,0.000000,0,0,0
8.970,-0.0772000,0.0018000,9.6708000,32.8751000,31.3416000,30.7236000,-46.9980000,-9.4130000,9.7340000,0.000000,0,0,0
8.980,-0.0760000,0.0018000,9.6708000,32.8674000,31.3492000,30.7312000,-46.9760000,-9.5560000,9.6740000,0.000000,0,0,0
8.990,-0.0760000,0.0018000,9.6720000,32.8674000,31.3492000,30.7236000,-47.2400000,-9.3040000,9.3390000,0.000000,0,0,0
9.000,-0.0760000,0.0006000,9.6732000,32.8674000,31.3568000,30.7236000,-47.4110000,-9.6990000,9.4870000,0.000000,0,0,0
9.010,-0.0760000,-0.0006000,9.6720000,32.8674000,31.3492000,30.7159000,-46.9910000,-9.3270000,9.3340000,0.000000,0,0,0
9.020,-0.0760000,-0.0018000,9.6720000,32.8674000,31.3416000,30.7159000,-47.1440000,-9.5390000,10.0730000,0.000000,0,0,0
9.030,-0.0760000,-0.0030000,9.6720000,32.8751000,31.3339000,30.7159000,-46.9960000,-9.3250000,9.5320000,0.000000,0,0,0
9.040,-0.0760000,-0.0030000,9.6732000,32.8827000,31.3339000,30.7159000,-47.1270000,-9.6150000,10.1130000,0.000000,0,0,0
9.050,-0.0772000,-0.0006000,9.6744000,32.8903000,31.3263000,30.7236000,-46.8640000,-9.6160000,10.2580000,0.000000,0,0,0
9.060,-0.0784000,0.0006000,9.6756000,32.8903000,31.3187000,30.7159000,-47.5640000,-9.6080000,9.9450000,0.000000,0,0,0
9.070,-0.0796000,0.0006000,9.6768000,32.8903000,31.3187000,30.7236000,-46.8430000,-9.4290000,10.3000000,0.000000,0,0,0
9.080,-0.0796000,0.0018000,9.6768000,32.8827000,31.3110000,30.7236000,-47.2640000,-9.4790000,10.5670000,0.000000,0,0,0
9.090,-0.0784000,0.0006000,9.6756000,32.8827000,31.3034000,30.7236000,-47.2130000,-9.5150000,10.3190000,0.000000,0,0,0
9.100,-0.0772000,-0.0006000,9.6744000,32.8827000,31.3034000,30.7236000,-47.1630000,-9.6010000,10.1930000,0.000000,0,0,0
9.110,-0.0772000,-0.0018000,9.6744000,32.8827000,31.3034000,30.7236000,-47.1620000,-9.2480000,10.0390000,0.000000,0,0,0
9.120,-0.0772000,-0.0042000,9.6744000,32.8751000,31.3034000,30.7236000,-47.1800000,-9.2580000,10.0290000,0.000000,0,0,0
9.130,-0.0772000,-0.0042000,9.6744000,32.8751000,31.3034000,30.7236000,-46.9620000,-9.4700000,10.2780000,0.000000,0,0,0
9.140,-0.0772000,-0.0042000,9.6732000,32.8751000,31.3034000,30.7236000,-47.0420000,-9.5070000,10.0600000,0.000000,0,0,0
9.150,-0.0772000,-0.0030000,9.6732000,32.8827000,31.3110000,30.7312000,-46.5280000,-9.5950000,9.4260000,0.000000,0,0,0
9.160,-0.0772000,-0.0006000,9.6732000,32.8827000,31.3187000,30.7312000,-46.9870000,-9.6680000,10.1750000,0.000000,0,0,0
9.170,-0.0748000,0.0006000,9.6720000,32.8903000,31.3187000,30.7312000,-46.8650000,-9.4810000,9.8150000,0.000000,0,0,0
9.180,-0.0736000,0.0030000,9.6720000,32.8903000,31.3110000,30.7312000,-47.2130000,-9.5360000,9.8680000,0.000000,0,0,0
9.190,-0.0724000,0.0030000,9.6708000,32.8903000,31.3110000,30.7312000,-46.8730000,-9.4600000,9.4620000,0.000000,0,0,0
9.200,-0.0736000,0.0030000,9.6708000,32.8903000,31.3110000,30.7312000,-47.1660000,-9.5100000,9.9220000,0.000000,0,0,0
9.210,-0.0748000,0.0030000,9.6720000,32.8827000,31.3110000,30.7312000,-47.1280000,-9.2650000,10.0950000,0.000000,0,0,0
9.220,-0.0772000,0.0018000,9.6720000,32.8827000,31.3187000,30.7312000,-47.1600000,-9.3670000,9.7300000,0.000000,0,0,0
9.230,-0.0784000,0.0018000,9.6720000,32.8827000,31.3187000,30.7312000,-47.2300000,-9.3210000,9.1000000,0.000000,0,0,0
9.240,-0.0784000,0.0006000,9.6708000,32.8903000,31.3187000,30.7312000,-46.9980000,-9.8870000,10.6610000,0.000000,0,0,0
9.250,-0.0784000,0.0006000,9.6708000,32.8903000,31.3263000,30.7312000,-47.0260000,-9.5420000,9.8120000,0.000000,0,0,0
9.260,-0.0784000,0.0018000,9.6696000,32.8827000,31.3263000,30.7312000,-47.2420000,-9.6290000,10.2930000,0.000000,0,0,0
9.270,-0.0772000,0.0018000,9.6708000,32.8827000,31.3263000,30.7236000,-47.1860000,-9.4360000,10.0960000,0.000000,0,0,0
9.280,-0.0772000,0.0018000,9.6720000,32.8903000,31.3187000,30.7159000,-47.4210000,-9.2700000,10.0700000,0.000000,0,0,0
9.290,-0.0784000,-0.0006000,9.6732000,32.8903000,31.3187000,30.7083000,-47.2370000,-9.2080000,9.8550000,0.000000,0,0,0
9.300,-0.0807000,-0.0018000,9.6732000,32.8827000,31.3110000,30.7083000,-47.1070000,-9.5800000,9.8330000,0.000000,0,0,0
9.310,-0.0819000,-0.0018000,9.6744000,32.8827000,31.3034000,30.7083000,-47.1920000,-9.0690000,9.5950000,0.000000,0,0,0
9.320,-0.0807000,-0.0006000,9.6744000,32.8827000,31.2958000,30.7083000,-47.1650000,-9.5510000,9.9340000,0.000000,0,0,0
9.330,-0.0784000,-0.0006000,9.6732000,32.8827000,31.2958000,30.7083000,-46.9150000,-9.4170000,9.7000000,0.000000,0,0,0
9.340,-0.0772000,0.0018000,9.6720000,32.8827000,31.2958000,30.7159000,-47.1590000,-9.4950000,9.8630000,0.000000,0,0,0
9.350,-0.0748000,0.0030000,9.6720000,32.8827000,31.3034000,30.7083000,-47.1520000,-9.3730000,9.8500000,0.000000,0,0,0
9.360,-0.0736000,0.0018000,9.6756000,32.8827000,31.3110000,30.7159000,-46.9630000,-9.5720000,10.3470000,0.000000,0,0,0
9.370,-0.0736000,0.0018000,9.6768000,32.8827000,31.3263000,30.7159000,-47.0070000,-9.0260000,9.5050000,0.000000,0,0,0
9.380,-0.0748000,0.0006000,9.6780000,32.8751000,31.3416000,30.7083000,-46.8320000,-9.7350000,10.0640000,0.000000,0,0,0
9.390,-0.0760000,0.0006000,9.6768000,32.8751000,31.3568000,30.7159000,-46.9630000,-9.5370000,10.6590000,0.000000,0,0,0
9.400,-0.0772000,0.0006000,9.6756000,32.8751000,31.3644000,30.7159000,-46.8690000,-9.5200000,9.8240000,0.000000,0,0,0
9.410,-0.0784000,0.0006000,9.6732000,32.8827000,31.3644000,30.7159000,-46.9390000,-9.3390000,9.4230000,0.000000,0,0,0
9.420,-0.0784000,0.0006000,9.6732000,32.8903000,31.3644000,30.7083000,-47.0640000,-9.3360000,9.8790000,0.000000,0,0,0
9.430,-0.0796000,0.0018000,9.6732000,32.8903000,31.3568000,30.7159000,-47.0960000,-9.3170000,9.3450000,0.000000,0,0,0
9.440,-0.0796000,0.0006000,9.6732000,32.8903000,31.3492000,30.7159000,-47.0300000,-9.4960000,9.6880000,0.000000,0,0,0
9.450,-0.0796000,-0.0006000,9.6732000,32.8903000,31.3416000,30.7236000,-46.9970000,-9.4700000,9.5040000,0.000000,0,0,0
9.460,-0.0796000,-0.0018000,9.6732000,32.8903000,31.3339000,30.7236000,-47.1860000,-9.4450000,10.2770000,0.000000,0,0,0
9.470,-0.0807000,-0.0018000,9.6732000,32.8827000,31.3263000,30.7236000,-47.0660000,-9.4380000,10.3490000,0.000000,0,0,0
9.480,-0.0796000,-0.0018000,9.6720000,32.8751000,31.3339000,30.7312000,-47.4570000,-9.5940000,10.4210000,0.000000,0,0,0
9.490,-0.0796000,0.0006000,9.6708000,32.8751000,31.3339000,30.7388000,-46.9040000,-9.2390000,9.6340000,0.000000,0,0,0
9.500,-0.0784000,0.0006000,9.6720000,32.8751000,31.3339000,30.7388000,-47.0830000,-9.3760000,10.1330000,0.000000,0,0,0
9.510,-0.0784000,0.0006000,9.6720000,32.8751000,31.3416000,30.7388000,-47.1110000,-9.3390000,9.9190000,0.000000,0,0,0
9.520,-0.0796000,-0.0006000,9.6720000,32.8751000,31.3492000,30.7388000,-47.0380000,-9.4680000,10.5860000,0.000000,0,0,0
9.530,-0.0807000,-0.0006000,9.6720000,32.8674000,31.3644000,30.7312000,-47.0610000,-9.2830000,9.9050000,0.000000,0,0,0
9.540,-0.0819000,0.0006000,9.6720000,32.8674000,31.3644000,30.7236000,-47.4090000,-9.5970000,10.2760000,0.000000,0,0,0
9.550,-0.0807000,0.0006000,9.6720000,32.8751000,31.3644000,30.7236000,-47.0600000,-9.3170000,9.9170000,0.000000,0,0,0
9.560,-0.0796000,0.0006000,9.6720000,32.8751000,31.3568000,30.7159000,-47.2060000,-9.7220000,9.8930000,0.000000,0,0,0
9.570,-0.0784000,-0.0006000,9.6732000,32.8751000,31.3492000,30.7159000,-47.3260000,-9.1760000,9.1100000,0.000000,0,0,0
9.580,-0.0796000,-0.0018000,9.6744000,32.8751000,31.3492000,30.7159000,-47.1040000,-9.4700000,9.6980000,0.000000,0,0,0
9.590,-0.0807000,-0.0018000,9.6744000,32.8827000,31.3492000,30.7159000,-46.8060000,-9.4200000,9.2580000,0.000000,0,0,0
9.600,-0.0796000,-0.0018000,9.6732000,32.8751000,31.3644000,30.7236000,-46.9600000,-9.4330000,9.9250000,0.000000,0,0,0
9.610,-0.0784000,-0.0006000,9.6732000,32.8751000,31.3721000,30.7236000,-46.8780000,-9.1920000,9.7650000,0.000000,0,0,0
9.620,-0.0784000,0.0006000,9.6744000,32.8674000,31.3721000,30.7236000,-47.1220000,-9.5240000,9.9080000,0.000000,0,0,0
9.630,-0.0784000,0.0018000,9.6756000,32.8751000,31.3644000,30.7236000,-47.1430000,-9.2210000,9.5880000,0.000000,0,0,0
9.640,-0.0784000,0.0030000,9.6744000,32.8751000,31.3568000,30.7236000,-47.2810000,-9.3950000,9.7880000,0.000000,0,0,0
9.650,-0.0784000,0.0030000,9.6732000,32.8751000,31.3568000,30.7236000,-47.2900000,-9.1180000,9.5910000,0.000000,0,0,0
9.660,-0.0784000,0.0018000,9.6732000,32.8751000,31.3492000,30.7159000,-47.1420000,-9.3650000,9.6950000,0.000000,0,0,0
9.670,-0.0796000,-0.0006000,9.6756000,32.8751000,31.3416000,30.7159000,-47.2100000,-9.2740000,9.3550000,0.000000,0,0,0
9.680,-0.0796000,-0.0018000,9.6756000,32.8751000,31.3416000,30.7159000,-47.1250000,-9.4830000,10.4060000,0.000000,0,0,0
9.690,-0.0796000,-0.0018000,9.6744000,32.8751000,31.3492000,30.7159000,-46.8690000,-9.2630000,9.3200000,0.000000,0,0,0
9.700,-0.0796000,-0.0018000,9.6744000,32.8751000,31.3492000,30.7083000,-47.3600000,-9.3310000,10.0160000,0.000000,0,0,0
9.710,-0.0796000,-0.0018000,9.6756000,32.8751000,31.3644000,30.7159000,-47.4570000,-9.3940000,9.6750000,0.000000,0,0,0
9.720,-0.0796000,-0.0006000,9.6756000,32.8751000,31.3644000,30.7159000,-47.5020000,-9.5610000,9.4390000,0.000000,0,0,0
9.730,-0.0796000,-0.0018000,9.6720000,32.8751000,31.3644000,30.7159000,-46.8900000,-9.5210000,10.0080000,0.000000,0,0,0
9.740,-0.0796000,-0.0018000,9.6708000,32.8751000,31.3644000,30.7159000,-47.1660000,-9.7090000,10.1490000,0.000000,0,0,0
9.750,-0.0807000,-0.0018000,9.6720000,32.8751000,31.3644000,30.7159000,-46.9410000,-9.4350000,9.7860000,0.000000,0,0,0
9.760,-0.0819000,-0.0006000,9.6744000,32.8827000,31.3721000,30.7236000,-47.1930000,-9.6590000,9.9070000,0.000000,0,0,0
9.770,-0.0819000,0.0006000,9.6744000,32.8827000,31.3797000,30.7236000,-47.5060000,-9.4140000,9.4950000,0.000000,0,0,0
9.780,-0.0807000,0.0006000,9.6732000,32.8903000,31.3797000,30.7236000,-47.2510000,-9.6890000,9.6240000,0.000000,0,0,0
9.790,-0.0819000,0.0018000,9.6732000,32.8903000,31.3797000,30.7236000,-47.3030000,-9.2310000,9.6220000,0.000000,0,0,0
9.800,-0.0831000,0.0018000,9.6744000,32.8903000,31.3721000,30.7236000,-47.2550000,-9.6510000,9.5020000,0.000000,0,0,0
9.810,-0.0831000,0.0006000,9.6744000,32.8903000,31.3644000,30.7236000,-47.0010000,-9.2950000,9.6550000,0.000000,0,0,0
9.820,-0.0819000,-0.0006000,9.6732000,32.8903000,31.3568000,30.7236000,-47.2410000,-9.8300000,9.8440000,0.000000,0,0,0
9.830,-0.0807000,-0.0018000,9.6720000,32.8903000,31.3568000,30.7159000,-46.8540000,-9.5060000,9.3550000,0.000000,0,0,0
9.840,-0.0807000,-0.0006000,9.6732000,32.8903000,31.3568000,30.7159000,-47.0070000,-9.3650000,10.0610000,0.000000,0,0,0
9.850,-0.0796000,-0.0006000,9.6732000,32.8903000,31.3644000,30.7236000,-47.0930000,-9.4310000,9.5410000,0.000000,0,0,0
9.860,-0.0796000,0.0006000,9.6720000,32.8827000,31.3644000,30.7236000,-47.1020000,-9.6690000,9.9050000,0.000000,0,0,0
9.870,-0.0796000,0.0006000,9.6720000,32.8751000,31.3568000,30.7236000,-47.0150000,-9.3360000,9.7490000,0.000000,0,0,0
9.880,-0.0796000,0.0006000,9.6708000,32.8751000,31.3568000,30.7236000,-47.1220000,-9.5310000,9.9590000,0.000000,0,0,0
9.890,-0.0796000,0.0018000,9.6708000,32.8674000,31.3492000,30.7312000,-47.1760000,-9.4560000,9.6240000,0.000000,0,0,0
9.900,-0.0819000,0.0018000,9.6708000,32.8674000,31.3492000,30.7312000,-46.9700000,-9.4070000,10.1550000,0.000000,0,0,0
9.910,-0.0819000,0.0018000,9.6708000,32.8598000,31.3492000,30.7236000,-47.0560000,-9.4280000,9.5530000,0.000000,0,0,0
9.920,-0.0831000,0.0018000,9.6720000,32.8598000,31.3568000,30.7236000,-47.0840000,-9.6220000,10.5980000,0.000000,0,0,0
9.930,-0.0843000,0.0018000,9.6732000,32.8674000,31.3644000,30.7312000,-46.9760000,-9.3420000,9.8510000,0.000000,0,0,0
9.940,-0.0843000,0.0006000,9.6744000,32.8674000,31.3721000,30.7312000,-47.2360000,-9.6170000,9.7170000,0.000000,0,0,0
9.950,-0.0831000,-0.0006000,9.6768000,32.8751000,31.3644000,30.7312000,-46.7720000,-9.6100000,9.7050000,0.000000,0,0,0
9.960,-0.0831000,-0.0006000,9.6768000,32.8751000,31.3492000,30.7312000,-47.1320000,-9.5620000,9.5880000,0.000000,0,0,0
9.970,-0.0819000,-0.0006000,9.6744000,32.8751000,31.3416000,30.7236000,-46.9500000,-9.3720000,9.5000000,0.000000,0,0,0
9.980,-0.0796000,-0.0018000,9.6732000,32.8751000,31.3263000,30.7236000,-47.3320000,-9.2030000,9.4370000,0.000000,0,0,0
9.990,-0.0796000,-0.0018000,9.6732000,32.8674000,31.3187000,30.7236000,-46.8480000,-9.1550000,9.3970000,0.000000,0,0,0
10.000,-0.0796000,-0.0018000,9.6732000,32.8751000,31.3187000,30.7159000,-46.9190000,-9.4210000,9.4790000,0.000000,0,0,0
10.010,-0.0807000,-0.0006000,9.6732000,32.8751000,31.3110000,30.7159000,-46.8360000,-9.1860000,9.5900000,0.000000,0,0,0
10.020,-0.0819000,-0.0006000,9.6744000,32.8751000,31.3034000,30.7159000,-47.1440000,-9.5080000,9.3600000,0.000000,0,0,0
10.030,-0.0819000,0.0006000,9.6756000,32.8751000,31.3034000,30.7159000,-47.1240000,-9.3960000,9.0930000,0.000000,0,0,0
10.040,-0.0819000,0.0006000,9.6756000,32.8751000,31.3034000,30.7236000,-47.1410000,-9.7000000,9.2380000,0.000000,0,0,0
10.050,-0.0796000,-0.0006000,9.6720000,32.8674000,31.3187000,30.7236000,-46.8620000,-9.2820000,9.9940000,0.000000,0,0,0
10.060,-0.0796000,-0.0006000,9.6708000,32.8751000,31.3263000,30.7236000,-47.3010000,-9.5880000,9.9590000,0.000000,0,0,0
10.070,-0.0796000,0.0006000,9.6708000,32.8751000,31.3263000,30.7236000,-47.0440000,-9.7030000,9.6510000,0.000000,0,0,0
10.080,-0.0796000,-0.0006000,9.6720000,32.8751000,31.3263000,30.7236000,-47.1190000,-9.5350000,10.4070000,0.000000,0,0,0
10.090,-0.0807000,-0.0006000,9.6720000,32.8751000,31.3263000,30.7236000,-46.8500000,-9.2140000,9.9070000,0.000000,0,0,0
10.100,-0.0807000,-0.0006000,9.6732000,32.8827000,31.3339000,30.7236000,-46.9720000,-9.4520000,9.9700000,0.000000,0,0,0
10.110,-0.0819000,0.0006000,9.6732000,32.8827000,31.3339000,30.7236000,-46.9330000,-9.1470000,9.2180000,0.000000,0,0,0
10.120,-0.0831000,0.0006000,9.6744000,32.8751000,31.3339000,30.7236000,-47.1380000,-9.5380000,9.8470000,0.000000,0,0,0
10.130,-0.0843000,0.0006000,9.6744000,32.8827000,31.3263000,30.7236000,-46.9020000,-9.1150000,9.6220000,0.000000,0,0,0
10.140,-0.0843000,-0.0006000,9.6732000,32.8827000,31.3263000,30.7159000,-47.0180000,-9.4540000,10.0160000,0.000000,0,0,0
10.150,-0.0843000,-0.0006000,9.6720000,32.8751000,31.3263000,30.7159000,-47.0110000,-9.2470000,9.1580000,0.000000,0,0,0
10.160,-0.0843000,-0.0018000,9.6708000,32.8751000,31.3187000,30.7159000,-47.3220000,-9.4510000,9.4310000,0.000000,0,0,0
10.170,-0.0819000,-0.0030000,9.6708000,32.8827000,31.3187000,30.7159000,-47.1800000,-9.3440000,9.3800000,0.000000,0,0,0
10.180,-0.0807000,-0.0030000,9.6708000,32.8827000,31.3263000,30.7159000,-47.1120000,-9.3840000,8.9550000,0.000000,0,0,0
10.190,-0.0807000,-0.0030000,9.6708000,32.8827000,31.3263000,30.7236000,-46.8970000,-8.9300000,9.0800000,0.000000,0,0,0
10.200,-0.0807000,-0.0030000,9.6708000,32.8827000,31.3187000,30.7236000,-47.0770000,-9.3060000,8.8160000,0.000000,0,0,0
10.210,-0.0819000,-0.0018000,9.6708000,32.8751000,31.3187000,30.7159000,-46.7800000,-9.2170000,8.9630000,0.000000,0,0,0
10.220,-0.0819000,-0.0006000,9.6708000,32.8751000,31.3187000,30.7159000,-47.0970000,-9.3170000,8.6500000,0.000000,0,0,0
10.230,-0.0807000,0.0006000,9.6708000,32.8751000,31.3110000,30.7083000,-46.9370000,-9.4540000,9.0740000,0.000000,0,0,0
10.240,-0.0796000,0.0006000,9.6708000,32.8827000,31.3110000,30.7083000,-46.7930000,-9.4580000,9.3300000,0.000000,0,0,0
10.250,-0.0796000,0.0018000,9.6708000,32.8827000,31.3110000,30.7083000,-46.9180000,-9.3540000,9.3440000,0.000000,0,0,0
10.260,-0.0796000,0.0018000,9.6708000,32.8751000,31.3187000,30.7083000,-47.0690000,-9.3060000,9.3260000,0.000000,0,0,0
10.270,-0.0796000,0.0006000,9.6696000,32.8827000,31.3187000,30.7159000,-47.0570000,-9.0780000,9.5570000,0.000000,0,0,0
10.280,-0.0796000,-0.0006000,9.6684000,32.8751000,31.3187000,30.7159000,-46.9900000,-9.7500000,9.5880000,0.000000,0,0,0
10.290,-0.0796000,-0.0006000,9.6672000,32.8751000,31.3263000,30.7236000,-47.1610000,-9.4830000,9.7710000,0.000000,0,0,0
10.300,-0.0807000,-0.0006000,9.6672000,32.8827000,31.3416000,30.7236000,-47.2980000,-9.5920000,10.0620000,0.000000,0,0,0
10.310,-0.0819000,0.0006000,9.6684000,32.8827000,31.3492000,30.7236000,-46.8430000,-9.4570000,8.9010000,0.000000,0,0,0
10.320,-0.0831000,0.0018000,9.6708000,32.8751000,31.3492000,30.7236000,-47.2330000,-9.6710000,9.4960000,0.000000,0,0,0
10.330,-0.0819000,0.0018000,9.6708000,32.8751000,31.3492000,30.7159000,-46.9340000,-9.6870000,8.8710000,0.000000,0,0,0
10.340,-0.0819000,0.0030000,9.6708000,32.8827000,31.3492000,30.7236000,-47.1460000,-9.9210000,9.5670000,0.000000,0,0,0
10.350,-0.0796000,0.0018000,9.6720000,32.8827000,31.3492000,30.7236000,-47.0220000,-9.5080000,9.4540000,0.000000,0,0,0
10.360,-0.0784000,0.0006000,9.6720000,32.8903000,31.3416000,30.7236000,-47.4420000,-9.5870000,8.8960000,0.000000,0,0,0
10.370,-0.0784000,-0.0018000,9.6708000,32.8903000,31.3416000,30.7236000,-46.9820000,-9.3400000,8.9710000,0.000000,0,0,0
10.380,-0.0784000,-0.0030000,9.6708000,32.8903000,31.3339000,30.7236000,-47.1390000,-9.6970000,9.3110000,0.000000,0,0,0
10.390,-0.0784000,-0.0030000,9.6720000,32.8903000,31.3339000,30.7159000,-46.9010000,-9.4660000,9.1890000,0.000000,0,0,0
10.400,-0.0784000,-0.0030000,9.6732000,32.8903000,31.3339000,30.7159000,-46.8130000,-9.4430000,9.9490000,0.000000,0,0,0
10.410,-0.0796000,-0.0018000,9.6744000,32.8827000,31.3416000,30.7159000,-46.7750000,-9.3680000,9.5940000,0.000000,0,0,0
10.420,-0.0807000,-0.0018000,9.6732000,32.8827000,31.3416000,30.7159000,-47.3120000,-9.3190000,10.3000000,0.000000,0,0,0
10.430,-0.0819000,-0.0006000,9.6744000,32.8827000,31.3416000,30.7236000,-47.2550000,-9.4980000,9.7950000,0.000000,0,0,0
10.440,-0.0819000,0.0018000,9.6744000,32.8827000,31.3492000,30.7236000,-47.4590000,-9.7630000,9.4980000,0.000000,0,0,0
10.450,-0.0831000,0.0018000,9.6768000,32.8827000,31.3492000,30.7236000,-47.2040000,-9.2470000,9.4180000,0.000000,0,0,0
10.460,-0.0831000,0.0006000,9.6768000,32.8751000,31.3416000,30.7236000,-47.3300000,-9.5740000,10.1620000,0.000000,0,0,0
10.470,-0.0819000,-0.0018000,9.6756000,32.8751000,31.3416000,30.7236000,-47.1310000,-9.1940000,9.6900000,0.000000,0,0,0
10.480,-0.0819000,-0.0030000,9.6744000,32.8674000,31.3492000,30.7236000,-47.1350000,-9.2050000,9.9640000,0.000000,0,0,0
10.490,-0.0819000,-0.0042000,9.6744000,32.8674000,31.3568000,30.7159000,-47.1940000,-9.0930000,9.3300000,0.000000,0,0,0
10.500,-0.0843000,-0.0030000,9.6732000,32.8598000,31.3721000,30.7083000,-47.1810000,-9.6260000,9.2370000,0.000000,0,0,0
10.510,-0.0843000,-0.0018000,9.6744000,32.8598000,31.3873000,30.7083000,-47.5460000,-9.1880000,9.8210000,0.000000,0,0,0
10.520,-0.0843000,-0.0006000,9.6756000,32.8598000,31.3950000,30.7083000,-47.6500000,-9.1910000,9.6250000,0.000000,0,0,0
10.530,-0.0843000,0.0006000,9.6756000,32.8674000,31.4026000,30.7083000,-47.1690000,-8.9320000,9.7050000,0.000000,0,0,0
10.540,-0.0843000,0.0006000,9.6744000,32.8751000,31.4102000,30.7159000,-47.2720000,-9.4230000,10.2670000,0.000000,0,0,0
10.550,-0.0843000,0.0006000,9.6708000,32.8827000,31.4102000,30.7159000,-47.0540000,-9.1170000,9.6570000,0.000000,0,0,0
10.560,-0.0855000,-0.0006000,9.6708000,32.8903000,31.3950000,30.7159000,-47.2060000,-9.5220000,9.0130000,0.000000,0,0,0
10.570,-0.0843000,-0.0018000,9.6708000,32.8979000,31.3797000,30.7083000,-47.1070000,-9.1640000,9.1460000,0.000000,0,0,0
10.580,-0.0843000,-0.0030000,9.6708000,32.8979000,31.3644000,30.7083000,-47.0650000,-9.5600000,9.0620000,0.000000,0,0,0
10.590,-0.0843000,-0.0030000,9.6708000,32.8979000,31.3416000,30.7159000,-47.0490000,-9.6290000,9.5330000,0.000000,0,0,0
10.600,-0.0831000,-0.0006000,9.6708000,32.8979000,31.3110000,30.7236000,-47.3010000,-9.7110000,9.6150000,0.000000,0,0,0
10.610,-0.0831000,0.0006000,9.6720000,32.9056000,31.2805000,30.7236000,-46.9680000,-9.3610000,9.3540000,0.000000,0,0,0
10.620,-0.0819000,0.0018000,9.6732000,32.8979000,31.2500000,30.7236000,-47.6420000,-9.3470000,9.7910000,0.000000,0,0,0
10.630,-0.0819000,0.0018000,9.6720000,32.8903000,31.2271000,30.7312000,-47.1410000,-8.9970000,9.3580000,0.000000,0,0,0
10.640,-0.0819000,0.0006000,9.6696000,32.8827000,31.2119000,30.7236000,-46.9270000,-9.5640000,9.5180000,0.000000,0,0,0
10.650,-0.0807000,-0.0018000,9.6696000,32.8751000,31.2042000,30.7159000,-47.2580000,-9.4300000,9.4100000,0.000000,0,0,0
10.660,-0.0819000,-0.0042000,9.6708000,32.8751000,31.2042000,30.7159000,-47.2200000,-9.1980000,9.4520000,0.000000,0,0,0
10.670,-0.0831000,-0.0042000,9.6732000,32.8751000,31.2042000,30.7083000,-47.0540000,-9.4260000,8.8080000,0.000000,0,0,0
10.680,-0.0831000,-0.0030000,9.6732000,32.8827000,31.2042000,30.7007000,-47.1580000,-10.1270000,9.4630000,0.000000,0,0,0
10.690,-0.0819000,-0.0006000,9.6744000,32.8903000,31.2119000,30.6931000,-47.3350000,-9.1190000,8.9690000,0.000000,0,0,0
10.700,-0.0819000,0.0006000,9.6756000,32.8979000,31.2195000,30.6931000,-47.2690000,-9.6060000,9.8540000,0.000000,0,0,0
10.710,-0.0819000,0.0018000,9.6768000,32.8979000,31.2347000,30.6931000,-46.9210000,-9.4130000,9.8940000,0.000000,0,0,0
10.720,-0.0831000,0.0030000,9.6732000,32.8903000,31.2424000,30.6854000,-47.4180000,-9.4890000,10.1250000,0.000000,0,0,0
10.730,-0.0831000,0.0018000,9.6684000,32.8903000,31.2424000,30.6854000,-47.3090000,-9.3150000,9.7680000,0.000000,0,0,0
10.740,-0.0855000,0.0030000,9.6684000,32.8979000,31.2195000,30.6854000,-47.4300000,-9.5610000,9.6040000,0.000000,0,0,0
10.750,-0.0843000,0.0030000,9.6720000,32.9056000,31.1737000,30.7083000,-46.9700000,-9.0480000,9.5400000,0.000000,0,0,0
10.760,-0.0831000,0.0030000,9.6732000,32.9056000,31.1279000,30.7236000,-47.2300000,-9.5820000,10.3560000,0.000000,0,0,0
10.770,-0.0807000,0.0018000,9.6708000,32.9056000,31.1127000,30.7312000,-47.1830000,-9.2180000,9.8630000,0.000000,0,0,0
10.780,-0.0784000,-0.0006000,9.6708000,32.8979000,31.1050000,30.7312000,-47.1940000,-9.5370000,10.6350000,0.000000,0,0,0
10.790,-0.0772000,-0.0030000,9.6744000,32.8979000,31.1050000,30.7236000,-47.0550000,-9.1540000,9.9820000,0.000000,0,0,0
10.800,-0.0772000,-0.0066000,9.6768000,32.8979000,31.1279000,30.7083000,-47.1430000,-9.6090000,10.0830000,0.000000,0,0,0
10.810,-0.0784000,-0.0078000,9.6756000,32.8903000,31.1432000,30.6854000,-46.8740000,-9.3760000,9.6120000,0.000000,0,0,0
10.820,-0.0807000,-0.0066000,9.6732000,32.8903000,31.1508000,30.6625000,-47.1080000,-9.6670000,9.6670000,0.000000,0,0,0
10.830,-0.0831000,-0.0042000,9.6732000,32.8979000,31.1584000,30.6320000,-47.1200000,-9.5130000,9.7570000,0.000000,0,0,0
10.840,-0.0879000,-0.0018000,9.6756000,32.9056000,31.1584000,30.6015000,-47.1800000,-9.5670000,9.7760000,0.000000,0,0,0
10.850,-0.0963000,0.0018000,9.6744000,32.9056000,31.1508000,30.5786000,-46.9560000,-9.1400000,9.3100000,0.000000,0,0,0
10.860,-0.1119000,0.0042000,9.6720000,32.9056000,31.1432000,30.5328000,-47.1030000,-9.6540000,10.1360000,0.000000,0,0,0
10.870,-0.1788000,0.0102000,9.6720000,32.8979000,31.1356000,30.3574000,-47.0590000,-9.4530000,9.7130000,0.000000,0,0,0
10.880,-0.3212000,0.0209000,9.6744000,32.8903000,31.1508000,29.7623000,-47.1410000,-9.6500000,9.2760000,0.000000,0,0,0
10.890,-0.4588000,0.0269000,9.6792000,32.8827000,31.1890000,28.7781000,-47.1770000,-9.5130000,9.7740000,0.000000,0,0,0
