time,accel_x,accel_y,accel_z,gyro_x,gyro_y,gyro_z,mag_x,mag_y,mag_z,baro,gps_lat,gps_lon,gps_alt
0.780,-0.1065000,-0.3033000,9.6529000,56.2744000,65.9180000,69.5267000,-39.9300000,-12.8060000,5.3300000,0.000000,0,0,0
0.790,-0.0909000,-0.2339000,9.6505000,57.0374000,65.6662000,71.0526000,-39.7980000,-13.2200000,5.5690000,0.000000,0,0,0
0.800,-0.0909000,-0.2339000,9.6505000,57.0374000,65.6662000,71.0526000,-39.7980000,-13.2200000,5.5690000,0.000000,0,0,0
0.810,-0.0873000,-0.1669000,9.6469000,57.5180000,65.2847000,72.0062000,-39.6030000,-13.1100000,5.4240000,0.000000,0,0,0
0.820,-0.0945000,-0.0975000,9.6397000,58.0215000,64.6820000,72.6776000,-39.5520000,-13.1670000,5.1300000,0.000000,0,0,0
0.830,-0.1125000,-0.0365000,9.6277000,58.7082000,63.7665000,72.8683000,-40.1290000,-13.2720000,5.2240000,0.000000,0,0,0
0.840,-0.1340000,0.0138000,9.6134000,59.6390000,62.5534000,72.5327000,-39.9060000,-13.1420000,5.0460000,0.000000,0,0,0
0.850,-0.1507000,0.0592000,9.6038000,60.7452000,61.2793000,71.8155000,-39.9470000,-13.2700000,5.0000000,0.000000,0,0,0
0.860,-0.1567000,0.0963000,9.6014000,61.7523000,60.2646000,70.9000000,-39.7210000,-12.8540000,4.8780000,0.000000,0,0,0
0.870,-0.1448000,0.1214000,9.6098000,62.2559000,59.8373000,70.0073000,-39.6700000,-13.3650000,4.8110000,0.000000,0,0,0
0.880,-0.1089000,0.1370000,9.6218000,61.9354000,60.1044000,69.1605000,-39.6780000,-13.3300000,4.4090000,0.000000,0,0,0
0.890,-0.0610000,0.1513000,9.6337000,60.7986000,61.0275000,68.3289000,-39.5960000,-13.0170000,4.6670000,0.000000,0,0,0
0.900,-0.0191000,0.1453000,9.6433000,59.1354000,62.2559000,67.5201000,-39.4840000,-12.9840000,4.6920000,0.000000,0,0,0
0.910,0.0024000,0.1107000,9.6505000,57.5485000,63.3774000,66.9098000,-39.7700000,-13.2130000,4.9020000,0.000000,0,0,0
0.920,0.0048000,0.0580000,9.6529000,56.5796000,64.1098000,66.6199000,-39.9620000,-13.1750000,4.3320000,0.000000,0,0,0
0.930,-0.0120000,-0.0006000,9.6505000,56.4499000,64.3311000,66.6199000,-39.8570000,-13.4740000,4.7490000,0.000000,0,0,0
0.940,-0.0347000,-0.0580000,9.6457000,57.1289000,64.1174000,66.7038000,-40.0160000,-13.3380000,4.9250000,0.000000,0,0,0
0.950,-0.0550000,-0.1095000,9.6421000,58.3038000,63.7131000,66.6351000,-39.7710000,-13.5380000,5.4590000,0.000000,0,0,0
0.960,-0.0730000,-0.1430000,9.6445000,59.5016000,63.4689000,66.3528000,-39.8040000,-13.1250000,5.0250000,0.000000,0,0,0
0.970,-0.0802000,-0.1489000,9.6469000,60.1807000,63.5910000,65.8493000,-40.0480000,-13.1120000,5.4860000,0.000000,0,0,0
0.980,-0.0825000,-0.1370000,9.6469000,60.1273000,64.0030000,65.2618000,-39.4810000,-13.1030000,5.0910000,0.000000,0,0,0
0.990,-0.0921000,-0.1166000,9.6433000,59.5627000,64.5142000,64.7812000,-39.8960000,-12.9300000,5.0920000,0.000000,0,0,0
1.000,-0.1041000,-0.0987000,9.6385000,58.9828000,64.8804000,64.5676000,-39.9010000,-13.0780000,5.7220000,0.000000,0,0,0
1.010,-0.1160000,-0.0807000,9.6325000,58.8303000,64.8575000,64.5752000,-40.0060000,-13.1050000,5.3110000,0.000000,0,0,0
1.020,-0.1220000,-0.0604000,9.6265000,59.2651000,64.3387000,64.6515000,-40.0570000,-13.1340000,4.8660000,0.000000,0,0,0
1.030,-0.1244000,-0.0473000,9.6229000,60.1349000,63.4460000,64.7278000,-39.9260000,-13.1470000,5.4710000,0.000000,0,0,0
1.040,-0.1184000,-0.0413000,9.6241000,61.1038000,62.5610000,64.7736000,-40.0740000,-12.9290000,5.1070000,0.000000,0,0,0
1.050,-0.1017000,-0.0425000,9.6301000,61.7752000,61.9583000,64.7964000,-39.9510000,-13.0640000,5.1130000,0.000000,0,0,0
1.060,-0.0837000,-0.0568000,9.6385000,61.9888000,61.7905000,64.8727000,-39.6750000,-13.1100000,5.4780000,0.000000,0,0,0
1.070,-0.0694000,-0.0784000,9.6469000,61.6989000,62.0880000,65.0787000,-40.0800000,-13.0000000,5.0250000,0.000000,0,0,0
1.080,-0.0622000,-0.0999000,9.6505000,60.9741000,62.6907000,65.4984000,-40.1320000,-13.0090000,5.1810000,0.000000,0,0,0
1.090,-0.0730000,-0.1214000,9.6517000,60.0433000,63.3469000,66.1774000,-39.9320000,-13.0240000,4.9370000,0.000000,0,0,0
1.100,-0.0933000,-0.1430000,9.6481000,59.2957000,63.7741000,66.9937000,-39.9980000,-13.0180000,4.5900000,0.000000,0,0,0
1.110,-0.1244000,-0.1549000,9.6349000,59.2270000,63.6597000,67.8864000,-40.1100000,-13.0860000,4.7330000,0.000000,0,0,0
1.120,-0.1388000,-0.1442000,9.6253000,59.8907000,63.1485000,67.9474000,-40.1230000,-13.0150000,5.0410000,0.000000,0,0,0
1.130,-0.1495000,-0.1178000,9.6218000,60.7147000,62.5610000,67.6498000,-39.9110000,-13.2100000,4.9120000,0.000000,0,0,0
1.140,-0.1543000,-0.0843000,9.6206000,61.1267000,62.1490000,67.2913000,-39.9440000,-12.9860000,5.0180000,0.000000,0,0,0
1.150,-0.1400000,-0.0592000,9.6229000,60.9207000,62.0499000,67.0624000,-39.8180000,-13.0670000,5.1620000,0.000000,0,0,0
1.160,-0.1148000,-0.0473000,9.6265000,60.3638000,62.1948000,66.9785000,-39.9670000,-12.8860000,4.6430000,0.000000,0,0,0
1.170,-0.0813000,-0.0508000,9.6361000,59.9518000,62.4619000,66.9479000,-40.1660000,-12.9780000,4.7860000,0.000000,0,0,0
1.180,-0.0526000,-0.0604000,9.6457000,59.9747000,62.6831000,66.9785000,-39.8820000,-12.9590000,4.6870000,0.000000,0,0,0
1.190,-0.0347000,-0.0592000,9.6517000,60.3104000,62.8357000,67.1463000,-40.1030000,-13.1310000,4.7020000,0.000000,0,0,0
1.200,-0.0371000,-0.0496000,9.6517000,60.6918000,62.9196000,67.4438000,-39.8640000,-13.0130000,4.7070000,0.000000,0,0,0
1.210,-0.0514000,-0.0305000,9.6481000,60.8978000,63.0417000,67.7490000,-39.7160000,-12.9210000,4.7000000,0.000000,0,0,0
1.220,-0.0730000,-0.0114000,9.6445000,60.7910000,63.1943000,67.8864000,-39.8700000,-12.9040000,4.6210000,0.000000,0,0,0
1.230,-0.0945000,-0.0090000,9.6373000,60.4095000,63.2935000,67.7643000,-39.9810000,-13.1300000,4.6130000,0.000000,0,0,0
1.240,-0.1101000,-0.0245000,9.6301000,59.9899000,63.3698000,67.4210000,-40.1790000,-12.9200000,4.5210000,0.000000,0,0,0
1.250,-0.1220000,-0.0496000,9.6277000,59.7534000,63.4232000,66.9708000,-39.7020000,-12.8430000,4.7990000,0.000000,0,0,0
1.260,-0.1280000,-0.0784000,9.6301000,59.8068000,63.4232000,66.5436000,-40.1620000,-13.0960000,5.1030000,0.000000,0,0,0
1.270,-0.1316000,-0.1035000,9.6325000,60.0662000,63.3011000,66.2155000,-39.9190000,-13.0600000,5.5970000,0.000000,0,0,0
1.280,-0.1280000,-0.1142000,9.6349000,60.4858000,63.1180000,66.0019000,-40.0610000,-13.1250000,5.1610000,0.000000,0,0,0
1.290,-0.1172000,-0.1059000,9.6361000,60.9894000,62.8967000,65.8035000,-39.9590000,-13.2240000,4.9590000,0.000000,0,0,0
1.300,-0.1017000,-0.0807000,9.6373000,61.4014000,62.7060000,65.6204000,-39.9370000,-13.3370000,5.7300000,0.000000,0,0,0
1.310,-0.0909000,-0.0532000,9.6373000,61.5692000,62.5916000,65.5212000,-40.3850000,-12.9740000,5.0100000,0.000000,0,0,0
1.320,-0.0909000,-0.0353000,9.6373000,61.5158000,62.6221000,65.6128000,-40.1800000,-12.9770000,5.0730000,0.000000,0,0,0
1.330,-0.0945000,-0.0317000,9.6361000,61.3174000,62.7975000,65.8798000,-39.9560000,-12.9260000,5.0150000,0.000000,0,0,0
1.340,-0.0993000,-0.0413000,9.6361000,61.0352000,63.0264000,66.2308000,-39.9450000,-13.0000000,4.9890000,0.000000,0,0,0
1.350,-0.1077000,-0.0580000,9.6361000,60.7452000,63.2019000,66.5283000,-39.8510000,-12.8420000,5.1420000,0.000000,0,0,0
1.360,-0.1160000,-0.0784000,9.6349000,60.5469000,63.2553000,66.6580000,-40.1230000,-12.9640000,5.2890000,0.000000,0,0,0
1.370,-0.1196000,-0.0915000,9.6349000,60.4935000,63.1714000,66.5970000,-39.7740000,-13.0600000,4.6700000,0.000000,0,0,0
1.380,-0.1196000,-0.0987000,9.6361000,60.6155000,62.9959000,66.3834000,-40.1660000,-13.2440000,5.0220000,0.000000,0,0,0
1.390,-0.1125000,-0.0975000,9.6409000,60.8673000,62.8281000,66.1011000,-40.2490000,-13.2780000,5.2430000,0.000000,0,0,0
1.400,-0.1005000,-0.0819000,9.6433000,61.0886000,62.7441000,65.8798000,-39.9210000,-12.9260000,4.9950000,0.000000,0,0,0
1.410,-0.0897000,-0.0592000,9.6433000,61.1191000,62.7747000,65.8264000,-39.9240000,-12.9510000,5.3240000,0.000000,0,0,0
1.420,-0.0873000,-0.0437000,9.6433000,60.9360000,62.9120000,65.9866000,-39.7300000,-13.1150000,5.3400000,0.000000,0,0,0
1.430,-0.0825000,-0.0413000,9.6421000,60.6689000,63.1104000,66.3071000,-40.1410000,-13.1030000,4.9480000,0.000000,0,0,0
1.440,-0.0849000,-0.0461000,9.6409000,60.4858000,63.2324000,66.6351000,-39.7520000,-12.9210000,4.7380000,0.000000,0,0,0
1.450,-0.0897000,-0.0544000,9.6373000,60.4782000,63.2782000,66.8488000,-40.1760000,-13.4840000,4.5500000,0.000000,0,0,0
1.460,-0.0945000,-0.0604000,9.6361000,60.6155000,63.2248000,66.8869000,-39.9000000,-13.1920000,5.0800000,0.000000,0,0,0
1.470,-0.1029000,-0.0616000,9.6361000,60.7681000,63.1409000,66.8030000,-39.8850000,-13.0200000,5.2030000,0.000000,0,0,0
1.480,-0.1101000,-0.0568000,9.6373000,60.8902000,63.1104000,66.6885000,-40.1570000,-12.8600000,4.9480000,0.000000,0,0,0
1.490,-0.1196000,-0.0532000,9.6397000,60.8978000,63.1790000,66.6809000,-39.7600000,-12.9580000,5.4800000,0.000000,0,0,0
1.500,-0.1244000,-0.0532000,9.6397000,60.6995000,63.3392000,66.7648000,-39.9840000,-13.0600000,5.0440000,0.000000,0,0,0
1.510,-0.1220000,-0.0496000,9.6385000,60.4019000,63.5223000,66.7725000,-39.9940000,-12.8410000,4.9630000,0.000000,0,0,0
1.520,-0.1160000,-0.0437000,9.6349000,60.2188000,63.6063000,66.6122000,-40.0280000,-12.5150000,4.6120000,0.000000,0,0,0
1.530,-0.1113000,-0.0353000,9.6337000,60.2264000,63.5910000,66.3986000,-40.0660000,-12.6470000,4.6530000,0.000000,0,0,0
1.540,-0.1029000,-0.0245000,9.6349000,60.4401000,63.5452000,66.2613000,-39.9380000,-12.9280000,5.2770000,0.000000,0,0,0
1.550,-0.0921000,-0.0150000,9.6373000,60.7758000,63.4460000,66.3300000,-39.8470000,-12.9650000,5.1770000,0.000000,0,0,0
1.560,-0.0885000,-0.0197000,9.6421000,61.0046000,63.3850000,66.6275000,-40.1190000,-12.7220000,5.1820000,0.000000,0,0,0
1.570,-0.0778000,-0.0317000,9.6481000,61.0428000,63.4613000,67.0090000,-40.2570000,-13.1050000,4.9190000,0.000000,0,0,0
1.580,-0.0706000,-0.0473000,9.6517000,60.9131000,63.6444000,67.2455000,-39.7450000,-13.0520000,5.0570000,0.000000,0,0,0
1.590,-0.0766000,-0.0640000,9.6481000,60.6232000,63.8504000,67.2989000,-39.7860000,-12.9850000,5.1160000,0.000000,0,0,0
1.600,-0.0933000,-0.0652000,9.6409000,60.2112000,64.0793000,67.2379000,-39.9230000,-12.8570000,5.4920000,0.000000,0,0,0
1.610,-0.1220000,-0.0568000,9.6349000,59.7076000,64.2166000,67.2684000,-40.2230000,-13.1630000,5.1540000,0.000000,0,0,0
1.620,-0.1531000,-0.0592000,9.6313000,59.2499000,64.2548000,67.5201000,-39.7360000,-13.1070000,5.2300000,0.000000,0,0,0
1.630,-0.1675000,-0.0676000,9.6301000,59.0897000,64.1937000,67.8406000,-39.8630000,-12.8250000,5.5880000,0.000000,0,0,0
1.640,-0.1663000,-0.0712000,9.6277000,59.2499000,63.9801000,67.9855000,-39.9820000,-12.8360000,4.9390000,0.000000,0,0,0
1.650,-0.1615000,-0.0676000,9.6265000,59.5016000,63.6902000,67.9092000,-39.9830000,-13.0740000,5.2280000,0.000000,0,0,0
1.660,-0.1627000,-0.0604000,9.6241000,59.6313000,63.3774000,67.7414000,-39.8660000,-13.0800000,5.2600000,0.000000,0,0,0
1.670,-0.1663000,-0.0568000,9.6241000,59.6848000,63.0569000,67.5964000,-40.1440000,-12.9640000,5.1040000,0.000000,0,0,0
1.680,-0.1759000,-0.0628000,9.6253000,59.7458000,62.6907000,67.5812000,-40.1300000,-12.9770000,5.0650000,0.000000,0,0,0
1.690,-0.1794000,-0.0724000,9.6277000,59.8755000,62.3703000,67.6422000,-39.8240000,-13.2670000,5.3530000,0.000000,0,0,0
1.700,-0.1543000,-0.0712000,9.6325000,60.1120000,61.8973000,67.4362000,-40.0120000,-12.8510000,4.7900000,0.000000,0,0,0
1.710,-0.1292000,-0.0616000,9.6361000,60.2264000,61.6608000,66.9861000,-40.0620000,-13.2910000,4.5370000,0.000000,0,0,0
1.720,-0.1065000,-0.0473000,9.6409000,60.2722000,61.5540000,66.4597000,-40.1410000,-12.9380000,4.7680000,0.000000,0,0,0
1.730,-0.0825000,-0.0293000,9.6457000,60.1883000,61.6379000,66.0782000,-39.8110000,-13.0090000,4.9040000,0.000000,0,0,0
1.740,-0.0646000,-0.0138000,9.6505000,59.9899000,61.8973000,66.0248000,-39.9920000,-12.9170000,4.9750000,0.000000,0,0,0
1.750,-0.0574000,-0.0018000,9.6529000,59.7458000,62.3093000,66.3223000,-40.1020000,-13.0930000,5.5580000,0.000000,0,0,0
1.760,-0.0634000,0.0030000,9.6517000,59.5474000,62.7213000,66.8411000,-40.0210000,-12.9680000,5.6630000,0.000000,0,0,0
1.770,-0.0802000,-0.0018000,9.6469000,59.5627000,63.0264000,67.3218000,-40.1880000,-13.0130000,5.6310000,0.000000,0,0,0
1.780,-0.0981000,-0.0209000,9.6385000,59.9060000,63.1027000,67.5278000,-39.8670000,-13.0280000,5.6310000,0.000000,0,0,0
1.790,-0.1136000,-0.0532000,9.6337000,60.4401000,62.9501000,67.4057000,-40.0910000,-13.0680000,4.4850000,0.000000,0,0,0
1.800,-0.1232000,-0.0879000,9.6325000,60.9207000,62.7060000,67.0624000,-40.1740000,-12.9850000,5.2270000,0.000000,0,0,0
1.810,-0.1268000,-0.1130000,9.6361000,61.1267000,62.5458000,66.6733000,-39.9270000,-12.9670000,5.1570000,0.000000,0,0,0
1.820,-0.1220000,-0.1238000,9.6409000,60.9665000,62.5763000,66.3834000,-39.6910000,-12.9170000,5.0220000,0.000000,0,0,0
1.830,-0.1160000,-0.1250000,9.6433000,60.5392000,62.7899000,66.2918000,-39.8180000,-13.3260000,5.5240000,0.000000,0,0,0
1.840,-0.1053000,-0.1262000,9.6457000,60.0662000,63.1256000,66.4597000,-39.7760000,-13.1180000,5.8060000,0.000000,0,0,0
1.850,-0.0969000,-0.1226000,9.6469000,59.7305000,63.4995000,66.7801000,-39.8270000,-12.9460000,5.5650000,0.000000,0,0,0
1.860,-0.0861000,-0.1107000,9.6481000,59.6771000,63.7970000,67.0547000,-40.1080000,-12.9910000,5.0800000,0.000000,0,0,0
1.870,-0.0754000,-0.0951000,9.6493000,59.9823000,63.9114000,67.1234000,-40.2570000,-13.0260000,5.3240000,0.000000,0,0,0
1.880,-0.0742000,-0.0748000,9.6457000,60.5164000,63.8275000,67.0395000,-39.9480000,-13.1460000,6.0960000,0.000000,0,0,0
1.890,-0.0885000,-0.0520000,9.6409000,61.0046000,63.6597000,66.9785000,-39.9720000,-13.5740000,5.4010000,0.000000,0,0,0
1.900,-0.1160000,-0.0317000,9.6349000,61.1877000,63.4842000,67.0776000,-39.7630000,-13.2920000,5.0590000,0.000000,0,0,0
1.910,-0.1436000,-0.0245000,9.6313000,61.0275000,63.3621000,67.2989000,-40.1300000,-13.1430000,5.2540000,0.000000,0,0,0
1.920,-0.1615000,-0.0305000,9.6277000,60.6384000,63.2324000,67.5125000,-39.9840000,-13.2120000,5.5810000,0.000000,0,0,0
1.930,-0.1675000,-0.0437000,9.6265000,60.2112000,63.0951000,67.5888000,-39.9730000,-13.0280000,5.4910000,0.000000,0,0,0
1.940,-0.1639000,-0.0616000,9.6277000,59.9060000,62.9730000,67.5125000,-39.8960000,-13.0440000,5.6690000,0.000000,0,0,0
1.950,-0.1603000,-0.0843000,9.6325000,59.7839000,62.8738000,67.3599000,-39.9620000,-13.0810000,5.2890000,0.000000,0,0,0
1.960,-0.1567000,-0.1047000,9.6373000,59.8145000,62.8204000,67.1921000,-40.0360000,-12.9970000,5.5250000,0.000000,0,0,0
1.970,-0.1555000,-0.1190000,9.6397000,59.9594000,62.7670000,67.0319000,-40.2820000,-12.9930000,6.0520000,0.000000,0,0,0
1.980,-0.1507000,-0.1226000,9.6373000,60.1349000,62.6526000,66.8716000,-39.9690000,-13.0600000,5.4530000,0.000000,0,0,0
1.990,-0.1507000,-0.1083000,9.6337000,60.2646000,62.4695000,66.6809000,-40.2820000,-13.1440000,5.5690000,0.000000,0,0,0
2.000,-0.1471000,-0.0807000,9.6277000,60.3180000,62.2940000,66.4673000,-40.2210000,-13.0040000,5.1330000,0.000000,0,0,0
2.010,-0.1388000,-0.0461000,9.6206000,60.2112000,62.2330000,66.2231000,-39.8480000,-13.2990000,5.9170000,0.000000,0,0,0
2.020,-0.1256000,-0.0138000,9.6170000,59.6313000,62.5076000,66.0095000,-39.9040000,-12.9740000,5.6640000,0.000000,0,0,0
2.030,-0.1089000,0.0042000,9.6146000,58.2275000,63.2324000,65.8875000,-40.2160000,-12.8470000,6.3460000,0.000000,0,0,0
2.040,-0.0885000,0.0150000,9.6218000,55.6793000,64.6210000,65.8035000,-40.0460000,-12.9860000,5.8710000,0.000000,0,0,0
2.050,-0.0646000,0.0353000,9.6349000,52.0706000,66.7114000,65.5823000,-39.9880000,-13.1580000,6.1120000,0.000000,0,0,0
2.060,-0.0419000,0.0592000,9.6493000,47.9126000,69.0231000,65.0787000,-40.0900000,-12.8220000,5.6760000,0.000000,0,0,0
2.070,-0.0323000,0.0568000,9.6612000,43.9758000,71.1441000,64.4913000,-39.7560000,-13.1620000,5.4760000,0.000000,0,0,0
2.080,-0.0526000,0.0102000,9.6684000,41.0156000,72.6852000,64.1937000,-39.9090000,-13.0210000,5.1690000,0.000000,0,0,0
2.090,-0.0969000,-0.0772000,9.6696000,39.7415000,73.3795000,64.4073000,-39.9640000,-13.1480000,5.1740000,0.000000,0,0,0
2.100,-0.1555000,-0.1932000,9.6672000,40.5807000,73.1125000,65.0864000,-40.0540000,-13.0450000,5.1500000,0.000000,0,0,0
2.110,-0.2213000,-0.3236000,9.6612000,43.6630000,71.8918000,65.9866000,-39.8750000,-13.2610000,5.2260000,0.000000,0,0,0
2.120,-0.2835000,-0.4468000,9.6505000,48.5382000,69.8242000,66.8564000,-39.9340000,-13.4850000,5.2640000,0.000000,0,0,0
2.130,-0.3254000,-0.5282000,9.6361000,54.3137000,67.2913000,67.5354000,-40.0350000,-13.1770000,5.3210000,0.000000,0,0,0
2.140,-0.3469000,-0.5473000,9.6289000,59.9365000,64.7049000,67.9169000,-39.8530000,-12.7710000,5.1860000,0.000000,0,0,0
2.150,-0.3493000,-0.5174000,9.6313000,64.5370000,62.4390000,68.0237000,-39.6100000,-13.1890000,5.2910000,0.000000,0,0,0
2.160,-0.3350000,-0.4660000,9.6349000,67.6727000,60.6995000,67.9855000,-40.0040000,-13.2820000,5.4160000,0.000000,0,0,0
2.170,-0.3063000,-0.4121000,9.6301000,69.2596000,59.5779000,67.9321000,-39.6050000,-13.0830000,5.5070000,0.000000,0,0,0
2.180,-0.2728000,-0.3499000,9.6337000,69.2902000,59.2346000,67.8635000,-40.0440000,-13.0050000,6.0530000,0.000000,0,0,0
2.190,-0.2369000,-0.2769000,9.6409000,68.1458000,59.4711000,67.6346000,-39.7610000,-13.1530000,6.1930000,0.000000,0,0,0
2.200,-0.2034000,-0.2147000,9.6457000,66.4825000,59.9899000,67.2455000,-39.7900000,-13.1820000,6.1680000,0.000000,0,0,0
2.210,-0.1782000,-0.1705000,9.6505000,64.8422000,60.6995000,66.9174000,-39.9730000,-13.2790000,6.0650000,0.000000,0,0,0
2.220,-0.1567000,-0.1346000,9.6517000,63.4155000,61.5463000,66.7801000,-39.7470000,-13.1240000,6.1820000,0.000000,0,0,0
2.230,-0.1412000,-0.1095000,9.6541000,62.2253000,62.3703000,66.8106000,-39.6820000,-13.3690000,5.6400000,0.000000,0,0,0
2.240,-0.1388000,-0.1023000,9.6588000,61.3708000,63.0569000,66.9785000,-39.7780000,-13.1260000,5.5860000,0.000000,0,0,0
2.250,-0.1603000,-0.1298000,9.6600000,60.8368000,63.6215000,67.3828000,-39.9530000,-13.3030000,5.6890000,0.000000,0,0,0
2.260,-0.1914000,-0.1741000,9.6564000,61.0428000,63.6139000,67.7414000,-39.8480000,-13.1050000,5.3610000,0.000000,0,0,0
2.270,-0.2273000,-0.2183000,9.6469000,61.6379000,63.2401000,68.0313000,-40.0490000,-13.2200000,4.7700000,0.000000,0,0,0
2.280,-0.2584000,-0.2554000,9.6397000,62.4771000,62.5763000,68.1076000,-39.9440000,-13.0850000,5.5930000,0.000000,0,0,0
2.290,-0.2787000,-0.2722000,9.6313000,63.3163000,61.8515000,67.8406000,-39.8860000,-13.1350000,5.8360000,0.000000,0,0,0
2.300,-0.2751000,-0.2626000,9.6265000,63.9572000,61.1954000,67.2150000,-40.0140000,-13.1480000,5.9480000,0.000000,0,0,0
2.310,-0.2548000,-0.2387000,9.6265000,64.3005000,60.7224000,66.4825000,-39.9780000,-13.1340000,5.4680000,0.000000,0,0,0
2.320,-0.2285000,-0.2076000,9.6337000,64.2929000,60.5774000,66.0248000,-39.9080000,-12.9620000,5.5690000,0.000000,0,0,0
2.330,-0.1986000,-0.1800000,9.6445000,63.8962000,60.8139000,66.0934000,-39.8260000,-13.3410000,6.0570000,0.000000,0,0,0
2.340,-0.1699000,-0.1597000,9.6517000,63.1866000,61.3861000,66.6504000,-39.9080000,-12.9770000,6.1690000,0.000000,0,0,0
2.350,-0.1495000,-0.1525000,9.6576000,62.2711000,62.1109000,67.4438000,-39.9930000,-13.0190000,5.9360000,0.000000,0,0,0
2.360,-0.1424000,-0.1561000,9.6588000,61.3632000,62.7823000,68.1686000,-39.9020000,-13.3520000,5.6400000,0.000000,0,0,0
2.370,-0.1507000,-0.1621000,9.6576000,60.7071000,63.2248000,68.6188000,-39.9080000,-13.3160000,5.8120000,0.000000,0,0,0
2.380,-0.1699000,-0.1693000,9.6541000,60.4935000,63.2782000,68.7790000,-39.8470000,-13.1240000,6.2320000,0.000000,0,0,0
2.390,-0.1974000,-0.1765000,9.6445000,60.7071000,62.9654000,68.7180000,-39.9540000,-13.2820000,6.3160000,0.000000,0,0,0
2.400,-0.2213000,-0.1753000,9.6361000,61.1572000,62.5458000,68.4891000,-40.2220000,-13.0700000,6.1120000,0.000000,0,0,0
2.410,-0.2321000,-0.1573000,9.6325000,61.5158000,62.2025000,68.0313000,-39.9910000,-13.1460000,5.9930000,0.000000,0,0,0
2.420,-0.2237000,-0.1370000,9.6313000,61.5692000,62.0270000,67.3676000,-39.9040000,-13.0380000,5.9370000,0.000000,0,0,0
2.430,-0.2094000,-0.1250000,9.6361000,61.3632000,62.0651000,66.6351000,-39.9210000,-13.1630000,5.9170000,0.000000,0,0,0
2.440,-0.1914000,-0.1178000,9.6433000,61.0580000,62.2711000,66.0477000,-39.8840000,-13.1910000,6.1000000,0.000000,0,0,0
2.450,-0.1782000,-0.1190000,9.6457000,60.7986000,62.4542000,65.7196000,-39.8420000,-13.0110000,6.8090000,0.000000,0,0,0
2.460,-0.1735000,-0.1214000,9.6445000,60.6079000,62.5839000,65.6662000,-39.6280000,-12.7820000,6.3160000,0.000000,0,0,0
2.470,-0.1723000,-0.1166000,9.6421000,60.5164000,62.5992000,65.7806000,-39.8570000,-12.8890000,5.5070000,0.000000,0,0,0
2.480,-0.1782000,-0.1142000,9.6433000,60.5850000,62.4771000,65.9714000,-40.1040000,-12.6780000,5.9450000,0.000000,0,0,0
2.490,-0.1890000,-0.1226000,9.6457000,60.7605000,62.2940000,66.2918000,-39.8460000,-12.8640000,5.7520000,0.000000,0,0,0
2.500,-0.1902000,-0.1382000,9.6493000,60.9436000,62.1490000,66.7267000,-39.8610000,-13.1390000,6.4450000,0.000000,0,0,0
2.510,-0.1854000,-0.1597000,9.6505000,61.1343000,62.0804000,67.1387000,-39.8500000,-12.8680000,6.5600000,0.000000,0,0,0
2.520,-0.1806000,-0.1836000,9.6493000,61.2717000,62.0880000,67.3904000,-39.6250000,-12.9590000,6.4950000,0.000000,0,0,0
2.530,-0.1806000,-0.2004000,9.6469000,61.2640000,62.1948000,67.4133000,-39.7920000,-12.9890000,6.4810000,0.000000,0,0,0
2.540,-0.1854000,-0.2052000,9.6433000,61.1572000,62.3169000,67.2073000,-39.9650000,-13.1560000,6.0630000,0.000000,0,0,0
2.550,-0.1902000,-0.1980000,9.6409000,60.9741000,62.3856000,66.8793000,-40.0660000,-13.1060000,5.8300000,0.000000,0,0,0
2.560,-0.1890000,-0.1776000,9.6373000,60.7529000,62.3856000,66.6046000,-39.9200000,-12.9750000,6.0130000,0.000000,0,0,0
2.570,-0.1842000,-0.1549000,9.6373000,60.5698000,62.3322000,66.5207000,-39.8540000,-13.2100000,5.7870000,0.000000,0,0,0
2.580,-0.1794000,-0.1418000,9.6409000,60.5545000,62.2787000,66.6885000,-39.6590000,-12.9780000,5.3670000,0.000000,0,0,0
2.590,-0.1759000,-0.1418000,9.6445000,60.6537000,62.2711000,67.1234000,-39.9450000,-13.0860000,5.6250000,0.000000,0,0,0
2.600,-0.1759000,-0.1453000,9.6457000,60.7147000,62.3627000,67.6804000,-39.9620000,-13.0610000,5.4940000,0.000000,0,0,0
2.610,-0.1806000,-0.1501000,9.6445000,60.6918000,62.4847000,68.1686000,-40.0360000,-13.0260000,6.5050000,0.000000,0,0,0
2.620,-0.1830000,-0.1525000,9.6445000,60.5927000,62.6831000,68.4052000,-40.1040000,-13.0080000,6.0400000,0.000000,0,0,0
2.630,-0.1830000,-0.1465000,9.6433000,60.3790000,62.8967000,68.3060000,-40.1560000,-13.1110000,5.9460000,0.000000,0,0,0
2.640,-0.1723000,-0.1334000,9.6445000,60.0433000,63.0875000,67.8558000,-40.1860000,-13.1280000,5.5870000,0.000000,0,0,0
2.650,-0.1603000,-0.1238000,9.6457000,59.7687000,63.1714000,67.1616000,-39.7700000,-13.0600000,5.3850000,0.000000,0,0,0
2.660,-0.1436000,-0.1178000,9.6505000,59.6924000,63.1714000,66.4520000,-40.0140000,-13.0040000,5.3710000,0.000000,0,0,0
2.670,-0.1268000,-0.1047000,9.6552000,59.8221000,63.1180000,65.8493000,-39.9910000,-13.0240000,6.2120000,0.000000,0,0,0
2.680,-0.1136000,-0.0819000,9.6552000,60.0052000,63.0188000,65.4526000,-40.0590000,-13.0130000,5.3720000,0.000000,0,0,0
2.690,-0.1160000,-0.0664000,9.6552000,60.1349000,62.9349000,65.3458000,-40.1680000,-13.1230000,5.8060000,0.000000,0,0,0
2.700,-0.1280000,-0.0712000,9.6541000,60.1959000,62.8815000,65.5289000,-39.8870000,-12.9910000,5.9300000,0.000000,0,0,0
2.710,-0.1352000,-0.0927000,9.6529000,60.3180000,62.9654000,65.8417000,-39.8220000,-13.3150000,5.8550000,0.000000,0,0,0
2.720,-0.1400000,-0.1286000,9.6517000,60.5698000,63.0875000,66.1163000,-39.7520000,-12.9270000,6.2680000,0.000000,0,0,0
2.730,-0.1495000,-0.1729000,9.6505000,60.8215000,63.1638000,66.3681000,-40.0930000,-13.0690000,5.6120000,0.000000,0,0,0
2.740,-0.1663000,-0.2171000,9.6493000,60.9283000,63.2401000,66.6809000,-40.0490000,-13.0750000,5.8020000,0.000000,0,0,0
2.750,-0.1890000,-0.2554000,9.6481000,60.8597000,63.3469000,67.1158000,-39.6780000,-13.1200000,5.8340000,0.000000,0,0,0
2.760,-0.2117000,-0.2745000,9.6421000,60.6537000,63.4460000,67.5812000,-39.9860000,-12.9610000,5.2050000,0.000000,0,0,0
2.770,-0.2297000,-0.2722000,9.6325000,60.3790000,63.4232000,67.9245000,-39.7900000,-13.1750000,5.6660000,0.000000,0,0,0
2.780,-0.2440000,-0.2506000,9.6241000,60.1425000,63.3316000,68.0847000,-39.7900000,-13.0950000,5.8320000,0.000000,0,0,0
2.790,-0.2512000,-0.2183000,9.6206000,60.0510000,63.2095000,68.1000000,-39.9990000,-12.8660000,5.4620000,0.000000,0,0,0
2.800,-0.2464000,-0.1848000,9.6206000,60.1349000,63.0875000,68.0618000,-39.8380000,-13.0860000,4.9000000,0.000000,0,0,0
2.810,-0.2393000,-0.1597000,9.6253000,60.3104000,62.9883000,68.0542000,-39.9290000,-13.0620000,5.5160000,0.000000,0,0,0
2.820,-0.2237000,-0.1442000,9.6313000,60.4324000,62.9425000,68.1000000,-39.9690000,-12.8290000,6.1130000,0.000000,0,0,0
2.830,-0.2046000,-0.1286000,9.6385000,60.3561000,62.9883000,68.1152000,-39.6790000,-13.1200000,6.2950000,0.000000,0,0,0
2.840,-0.1914000,-0.1107000,9.6433000,59.8297000,63.0417000,67.9855000,-40.0500000,-13.1900000,6.1280000,0.000000,0,0,0
2.850,-0.1962000,-0.1119000,9.6421000,59.4177000,63.0264000,67.8406000,-40.0090000,-13.0860000,6.0390000,0.000000,0,0,0
2.860,-0.1998000,-0.1142000,9.6397000,59.2270000,62.9349000,67.6727000,-40.1060000,-13.4060000,5.9700000,0.000000,0,0,0
2.870,-0.2010000,-0.1190000,9.6373000,59.4482000,62.6831000,67.4515000,-40.0550000,-13.2250000,5.9190000,0.000000,0,0,0
2.880,-0.1986000,-0.1226000,9.6373000,60.0281000,62.3016000,67.1768000,-39.9060000,-13.1040000,5.8170000,0.000000,0,0,0
2.890,-0.1914000,-0.1154000,9.6373000,60.7224000,61.9278000,66.8259000,-40.2790000,-13.1400000,6.5630000,0.000000,0,0,0
2.900,-0.1782000,-0.1011000,9.6397000,61.2030000,61.7599000,66.3834000,-39.9740000,-13.2150000,5.7740000,0.000000,0,0,0
2.910,-0.1567000,-0.0867000,9.6433000,61.2793000,61.8286000,65.8340000,-39.8290000,-13.2700000,6.1820000,0.000000,0,0,0
2.920,-0.1424000,-0.0784000,9.6469000,61.0504000,62.0728000,65.2618000,-39.9520000,-13.9130000,5.5350000,0.000000,0,0,0
2.930,-0.1412000,-0.0784000,9.6481000,60.7300000,62.3779000,64.8346000,-40.1060000,-13.0250000,5.8710000,0.000000,0,0,0
2.940,-0.1483000,-0.0855000,9.6445000,60.4477000,62.6373000,64.7049000,-39.7860000,-13.3560000,5.9730000,0.000000,0,0,0
2.950,-0.1615000,-0.1047000,9.6409000,60.2798000,62.7213000,64.9033000,-39.8760000,-13.2900000,5.7710000,0.000000,0,0,0
2.960,-0.1747000,-0.1346000,9.6385000,60.3333000,62.5992000,65.3381000,-40.0320000,-13.3810000,5.6240000,0.000000,0,0,0
2.970,-0.1806000,-0.1669000,9.6409000,60.6537000,62.3169000,65.8264000,-39.8550000,-13.3120000,5.9050000,0.000000,0,0,0
2.980,-0.1723000,-0.1944000,9.6433000,61.1115000,62.0193000,66.1774000,-40.1600000,-13.1360000,6.1390000,0.000000,0,0,0
2.990,-0.1531000,-0.2111000,9.6481000,61.5234000,61.8515000,66.3071000,-39.9590000,-13.1440000,6.3960000,0.000000,0,0,0
3.000,-0.1328000,-0.2207000,9.6529000,61.7142000,61.9049000,66.2460000,-40.0050000,-13.2170000,5.8970000,0.000000,0,0,0
3.010,-0.1160000,-0.2231000,9.6576000,61.7065000,62.2177000,66.0782000,-40.0330000,-13.3540000,6.3210000,0.000000,0,0,0
3.020,-0.1125000,-0.2123000,9.6600000,61.5234000,62.6831000,66.0019000,-39.8420000,-12.9900000,6.3090000,0.000000,0,0,0
3.030,-0.1220000,-0.1836000,9.6564000,61.1801000,63.2248000,66.1392000,-39.9150000,-13.1490000,7.0590000,0.000000,0,0,0
3.040,-0.1424000,-0.1573000,9.6505000,60.7300000,63.6368000,66.5741000,-40.1980000,-12.9930000,6.7780000,0.000000,0,0,0
3.050,-0.1663000,-0.1406000,9.6433000,60.3256000,63.8046000,67.2455000,-40.1080000,-13.1350000,6.9090000,0.000000,0,0,0
3.060,-0.1866000,-0.1286000,9.6361000,60.1044000,63.6826000,67.9474000,-40.0420000,-12.7440000,6.0440000,0.000000,0,0,0
3.070,-0.2022000,-0.1190000,9.6325000,60.1273000,63.3621000,68.4891000,-39.7820000,-12.8790000,5.5430000,0.000000,0,0,0
3.080,-0.2105000,-0.1107000,9.6313000,60.2951000,62.9730000,68.7408000,-39.9480000,-12.9660000,5.5940000,0.000000,0,0,0
3.090,-0.2082000,-0.1107000,9.6325000,60.4782000,62.6144000,68.7256000,-39.9840000,-13.1030000,6.1460000,0.000000,0,0,0
3.100,-0.1974000,-0.1190000,9.6373000,60.5850000,62.4313000,68.5043000,-40.1460000,-13.0430000,6.0520000,0.000000,0,0,0
3.110,-0.1818000,-0.1250000,9.6421000,60.5164000,62.4237000,68.1686000,-40.2480000,-13.1160000,5.8680000,0.000000,0,0,0
3.120,-0.1687000,-0.1262000,9.6445000,60.3027000,62.5229000,67.8024000,-40.2240000,-12.8190000,5.6610000,0.000000,0,0,0
3.130,-0.1651000,-0.1286000,9.6445000,60.0967000,62.5916000,67.5201000,-40.2110000,-13.0720000,5.6300000,0.000000,0,0,0
3.140,-0.1627000,-0.1298000,9.6421000,60.1196000,62.5687000,67.3676000,-40.2690000,-12.7710000,5.7380000,0.000000,0,0,0
3.150,-0.1591000,-0.1274000,9.6409000,60.4782000,62.4237000,67.3065000,-40.0790000,-13.2930000,6.5820000,0.000000,0,0,0
3.160,-0.1567000,-0.1214000,9.6421000,61.0046000,62.2101000,67.3370000,-39.9470000,-12.8570000,5.8180000,0.000000,0,0,0
3.170,-0.1531000,-0.1130000,9.6445000,61.4166000,62.0880000,67.4133000,-40.1670000,-13.0140000,5.4550000,0.000000,0,0,0
3.180,-0.1459000,-0.1083000,9.6469000,61.5387000,62.1185000,67.4210000,-40.2560000,-12.9370000,5.3770000,0.000000,0,0,0
3.190,-0.1376000,-0.1154000,9.6481000,61.3480000,62.3245000,67.2836000,-40.1910000,-13.2110000,5.1550000,0.000000,0,0,0
3.200,-0.1304000,-0.1298000,9.6505000,60.8978000,62.6984000,67.0319000,-40.1550000,-12.9000000,5.2660000,0.000000,0,0,0
3.210,-0.1352000,-0.1430000,9.6493000,60.4019000,63.0722000,66.7572000,-40.3600000,-13.1360000,5.1500000,0.000000,0,0,0
3.220,-0.1471000,-0.1537000,9.6457000,60.0510000,63.3240000,66.5817000,-40.3960000,-13.1500000,5.0610000,0.000000,0,0,0
3.230,-0.1591000,-0.1597000,9.6409000,60.0052000,63.3850000,66.5588000,-40.1620000,-13.2240000,5.3060000,0.000000,0,0,0
3.240,-0.1675000,-0.1621000,9.6385000,60.2951000,63.2324000,66.6275000,-40.0810000,-13.1800000,5.8690000,0.000000,0,0,0
3.250,-0.1699000,-0.1561000,9.6385000,60.7986000,62.9272000,66.7419000,-40.2600000,-13.2860000,5.3910000,0.000000,0,0,0
3.260,-0.1651000,-0.1382000,9.6385000,61.2869000,62.5992000,66.7725000,-40.2240000,-12.9550000,4.3310000,0.000000,0,0,0
3.270,-0.1567000,-0.1214000,9.6409000,61.6074000,62.3550000,66.6580000,-40.2610000,-13.0720000,5.1020000,0.000000,0,0,0
3.280,-0.1459000,-0.1130000,9.6433000,61.7676000,62.3016000,66.4673000,-40.1870000,-13.1850000,5.2070000,0.000000,0,0,0
3.290,-0.1388000,-0.1178000,9.6469000,61.7371000,62.4161000,66.2918000,-40.1770000,-13.1670000,5.4470000,0.000000,0,0,0
3.300,-0.1376000,-0.1274000,9.6493000,61.5463000,62.6450000,66.2231000,-40.4270000,-13.3100000,5.1040000,0.000000,0,0,0
3.310,-0.1483000,-0.1370000,9.6481000,61.2335000,62.8967000,66.2994000,-40.2390000,-13.3160000,4.9910000,0.000000,0,0,0
3.320,-0.1651000,-0.1442000,9.6433000,60.8521000,63.1027000,66.4749000,-40.0910000,-13.1660000,5.7480000,0.000000,0,0,0
3.330,-0.1830000,-0.1501000,9.6385000,60.4935000,63.1561000,66.6885000,-40.1730000,-13.1490000,4.8590000,0.000000,0,0,0
3.340,-0.1974000,-0.1489000,9.6313000,60.2798000,63.0417000,66.8564000,-40.3300000,-13.2710000,5.3250000,0.000000,0,0,0
3.350,-0.2046000,-0.1418000,9.6277000,60.2722000,62.7975000,66.9022000,-40.2960000,-13.0570000,5.7850000,0.000000,0,0,0
3.360,-0.2046000,-0.1286000,9.6277000,60.4706000,62.4847000,66.8411000,-40.2530000,-13.0780000,5.4200000,0.000000,0,0,0
3.370,-0.1974000,-0.1107000,9.6289000,60.7224000,62.1796000,66.7572000,-40.2520000,-12.9120000,4.7300000,0.000000,0,0,0
3.380,-0.1890000,-0.0939000,9.6301000,60.9207000,61.9354000,66.7038000,-40.6120000,-13.1000000,5.0460000,0.000000,0,0,0
3.390,-0.1771000,-0.0784000,9.6313000,61.0046000,61.7828000,66.6656000,-40.3460000,-13.3300000,4.8250000,0.000000,0,0,0
3.400,-0.1663000,-0.0664000,9.6349000,60.9283000,61.7218000,66.6199000,-40.3100000,-13.1940000,5.0580000,0.000000,0,0,0
3.410,-0.1579000,-0.0640000,9.6385000,60.7224000,61.7371000,66.5359000,-40.4070000,-12.9030000,4.7480000,0.000000,0,0,0
3.420,-0.1483000,-0.0688000,9.6397000,60.4553000,61.7981000,66.3910000,-40.4300000,-13.1340000,5.6780000,0.000000,0,0,0
3.430,-0.1424000,-0.0819000,9.6409000,60.1883000,61.8134000,66.2689000,-39.9250000,-13.0080000,5.2870000,0.000000,0,0,0
3.440,-0.1364000,-0.0963000,9.6421000,59.9747000,61.8057000,66.2308000,-40.3130000,-12.9150000,5.9010000,0.000000,0,0,0
3.450,-0.1244000,-0.1047000,9.6421000,59.8984000,61.6837000,66.3681000,-40.1060000,-13.0740000,6.0610000,0.000000,0,0,0
3.460,-0.1172000,-0.1130000,9.6433000,60.0510000,61.5692000,66.5588000,-39.9450000,-13.2230000,6.1950000,0.000000,0,0,0
3.470,-0.1125000,-0.1226000,9.6469000,60.2798000,61.5616000,66.8488000,-40.3260000,-13.2380000,6.0120000,0.000000,0,0,0
3.480,-0.1125000,-0.1322000,9.6481000,60.3714000,61.7218000,67.1692000,-40.0960000,-13.1000000,6.1310000,0.000000,0,0,0
3.490,-0.1148000,-0.1406000,9.6493000,60.2570000,62.0422000,67.4210000,-40.2210000,-12.7740000,5.6180000,0.000000,0,0,0
3.500,-0.1172000,-0.1501000,9.6493000,59.9823000,62.4237000,67.5583000,-40.1450000,-13.4030000,5.6130000,0.000000,0,0,0
3.510,-0.1196000,-0.1537000,9.6481000,59.7229000,62.7670000,67.6041000,-40.5490000,-12.8930000,6.0310000,0.000000,0,0,0
3.520,-0.1256000,-0.1489000,9.6457000,59.5779000,62.9578000,67.6498000,-40.6440000,-13.1190000,6.1700000,0.000000,0,0,0
3.530,-0.1316000,-0.1418000,9.6421000,59.6466000,62.9578000,67.8177000,-40.3650000,-13.3060000,6.0110000,0.000000,0,0,0
3.540,-0.1352000,-0.1394000,9.6421000,60.0433000,62.7747000,68.0695000,-40.3010000,-13.3210000,6.8520000,0.000000,0,0,0
3.550,-0.1316000,-0.1406000,9.6445000,60.8215000,62.4771000,68.2755000,-40.5020000,-13.2850000,5.9490000,0.000000,0,0,0
3.560,-0.1244000,-0.1406000,9.6457000,61.7676000,62.1796000,68.3136000,-40.3290000,-13.3050000,6.7580000,0.000000,0,0,0
3.570,-0.1184000,-0.1274000,9.6469000,62.4390000,62.0499000,68.1152000,-40.3270000,-13.0240000,5.8700000,0.000000,0,0,0
3.580,-0.1160000,-0.0939000,9.6457000,62.4847000,62.1872000,67.6956000,-40.3510000,-13.2410000,6.5620000,0.000000,0,0,0
3.590,-0.1136000,-0.0580000,9.6433000,61.9049000,62.4847000,67.1310000,-40.3400000,-13.4390000,5.8680000,0.000000,0,0,0
3.600,-0.1148000,-0.0353000,9.6385000,61.0352000,62.8128000,66.6351000,-40.1080000,-13.3870000,6.1960000,0.000000,0,0,0
3.610,-0.1196000,-0.0317000,9.6373000,60.3333000,63.0112000,66.3300000,-40.2810000,-13.3650000,6.3600000,0.000000,0,0,0
3.620,-0.1196000,-0.0461000,9.6373000,60.1196000,62.9730000,66.2155000,-40.5570000,-13.3260000,6.0250000,0.000000,0,0,0
3.630,-0.1196000,-0.0736000,9.6409000,60.3561000,62.7747000,66.2231000,-40.3580000,-13.1630000,6.3350000,0.000000,0,0,0
3.640,-0.1136000,-0.0999000,9.6457000,60.7452000,62.5916000,66.2460000,-40.1160000,-13.2580000,5.6910000,0.000000,0,0,0
3.650,-0.0981000,-0.1190000,9.6493000,61.0275000,62.5534000,66.1774000,-40.2750000,-13.3450000,5.8270000,0.000000,0,0,0
3.660,-0.0897000,-0.1370000,9.6529000,61.0733000,62.6831000,66.0858000,-40.4760000,-13.3090000,5.5760000,0.000000,0,0,0
3.670,-0.0921000,-0.1525000,9.6541000,60.9207000,62.9883000,66.1316000,-40.2520000,-13.1500000,5.7730000,0.000000,0,0,0
3.680,-0.1041000,-0.1585000,9.6505000,60.6613000,63.3240000,66.4139000,-40.3670000,-13.2000000,6.1510000,0.000000,0,0,0
3.690,-0.1220000,-0.1573000,9.6457000,60.4248000,63.5452000,66.8869000,-40.4090000,-13.4220000,6.0190000,0.000000,0,0,0
3.700,-0.1436000,-0.1477000,9.6385000,60.2875000,63.5910000,67.4362000,-40.3920000,-13.2820000,6.2460000,0.000000,0,0,0
3.710,-0.1663000,-0.1370000,9.6325000,60.2798000,63.4766000,67.8635000,-40.2990000,-13.0890000,6.1220000,0.000000,0,0,0
3.720,-0.1794000,-0.1238000,9.6301000,60.3561000,63.2477000,68.0237000,-40.4400000,-13.2370000,6.0580000,0.000000,0,0,0
3.730,-0.1782000,-0.1107000,9.6289000,60.4630000,62.9959000,67.8406000,-40.5510000,-13.1680000,5.7530000,0.000000,0,0,0
3.740,-0.1675000,-0.1035000,9.6325000,60.5469000,62.7823000,67.3981000,-40.5240000,-13.0910000,5.8570000,0.000000,0,0,0
3.750,-0.1531000,-0.1023000,9.6349000,60.5927000,62.6602000,66.8793000,-40.5560000,-13.3620000,5.0970000,0.000000,0,0,0
3.760,-0.1388000,-0.0975000,9.6397000,60.6232000,62.6144000,66.4673000,-40.1440000,-13.2700000,5.6050000,0.000000,0,0,0
3.770,-0.1280000,-0.0867000,9.6397000,60.6766000,62.5992000,66.2460000,-40.3420000,-13.2620000,5.3220000,0.000000,0,0,0
3.780,-0.1244000,-0.0736000,9.6397000,60.7834000,62.5916000,66.2079000,-40.5840000,-13.3610000,6.0090000,0.000000,0,0,0
3.790,-0.1304000,-0.0700000,9.6385000,60.9665000,62.5687000,66.3223000,-40.4700000,-13.4040000,6.0380000,0.000000,0,0,0
3.800,-0.1328000,-0.0772000,9.6385000,61.2488000,62.5610000,66.4673000,-40.2900000,-13.0720000,5.9280000,0.000000,0,0,0
3.810,-0.1244000,-0.0867000,9.6409000,61.5768000,62.6221000,66.4597000,-40.2350000,-13.0820000,5.5130000,0.000000,0,0,0
3.820,-0.1101000,-0.0867000,9.6409000,61.7905000,62.7594000,66.2079000,-40.2460000,-13.2230000,5.1070000,0.000000,0,0,0
3.830,-0.0969000,-0.0736000,9.6409000,61.6608000,62.9959000,65.7959000,-40.3980000,-13.4040000,5.1710000,0.000000,0,0,0
3.840,-0.0909000,-0.0676000,9.6433000,61.1572000,63.2858000,65.4907000,-40.4930000,-13.3110000,5.1080000,0.000000,0,0,0
3.850,-0.0981000,-0.0843000,9.6469000,60.4553000,63.5529000,65.5746000,-40.1080000,-13.2990000,5.9380000,0.000000,0,0,0
3.860,-0.1184000,-0.1154000,9.6481000,59.8755000,63.7360000,66.0782000,-40.3680000,-13.5330000,6.0420000,0.000000,0,0,0
3.870,-0.1364000,-0.1513000,9.6469000,59.7534000,63.6826000,66.7725000,-40.2040000,-13.2880000,5.6760000,0.000000,0,0,0
3.880,-0.1448000,-0.1717000,9.6445000,60.1425000,63.4308000,67.3447000,-40.1760000,-13.4260000,5.7120000,0.000000,0,0,0
3.890,-0.1436000,-0.1621000,9.6421000,60.7605000,63.1256000,67.5583000,-40.2680000,-13.1940000,5.4510000,0.000000,0,0,0
3.900,-0.1352000,-0.1262000,9.6421000,61.2030000,62.9730000,67.3904000,-40.4260000,-13.3160000,5.6720000,0.000000,0,0,0
3.910,-0.1244000,-0.0831000,9.6433000,61.2106000,63.0875000,67.0090000,-40.2140000,-13.1100000,5.0020000,0.000000,0,0,0
3.920,-0.1125000,-0.0496000,9.6457000,60.7681000,63.4766000,66.5817000,-40.8330000,-12.9910000,5.6310000,0.000000,0,0,0
3.930,-0.1077000,-0.0317000,9.6457000,60.0967000,63.9648000,66.2689000,-40.2160000,-13.2200000,5.4080000,0.000000,0,0,0
3.940,-0.1160000,-0.0365000,9.6433000,59.5627000,64.3692000,66.1316000,-40.2240000,-13.0920000,5.4680000,0.000000,0,0,0
3.950,-0.1316000,-0.0532000,9.6421000,59.4406000,64.5218000,66.2231000,-40.2780000,-13.1390000,5.1950000,0.000000,0,0,0
3.960,-0.1519000,-0.0772000,9.6409000,59.7534000,64.3768000,66.4978000,-40.5030000,-13.4370000,5.5920000,0.000000,0,0,0
3.970,-0.1711000,-0.0987000,9.6385000,60.3409000,63.9954000,66.8259000,-40.3090000,-13.3800000,5.3230000,0.000000,0,0,0
3.980,-0.1782000,-0.1107000,9.6373000,60.9055000,63.5529000,67.0471000,-40.3160000,-13.2070000,5.6830000,0.000000,0,0,0
3.990,-0.1747000,-0.1130000,9.6373000,61.2488000,63.1561000,67.0166000,-40.5640000,-13.2980000,5.5760000,0.000000,0,0,0
4.000,-0.1663000,-0.1095000,9.6397000,61.3251000,62.8586000,66.7648000,-40.5790000,-13.0690000,5.8800000,0.000000,0,0,0
4.010,-0.1531000,-0.1035000,9.6421000,61.2717000,62.6526000,66.4749000,-40.3200000,-13.3970000,5.6920000,0.000000,0,0,0
4.020,-0.1436000,-0.0999000,9.6457000,61.2335000,62.5534000,66.3376000,-40.3810000,-13.3450000,5.0830000,0.000000,0,0,0
4.030,-0.1352000,-0.0999000,9.6469000,61.2259000,62.5381000,66.5054000,-40.4950000,-13.3000000,5.8450000,0.000000,0,0,0
4.040,-0.1316000,-0.1011000,9.6469000,61.2106000,62.5839000,66.9556000,-40.2680000,-13.2580000,5.1710000,0.000000,0,0,0
4.050,-0.1316000,-0.1035000,9.6457000,61.1725000,62.6373000,67.4973000,-40.5150000,-13.4340000,5.0310000,0.000000,0,0,0
4.060,-0.1364000,-0.1059000,9.6445000,61.1038000,62.7060000,67.9092000,-40.5520000,-13.2420000,5.5560000,0.000000,0,0,0
4.070,-0.1436000,-0.0975000,9.6421000,60.9436000,62.7518000,67.9398000,-40.5860000,-13.2330000,4.6770000,0.000000,0,0,0
4.080,-0.1483000,-0.0879000,9.6421000,60.8826000,62.7441000,67.6193000,-40.6640000,-13.3400000,5.0480000,0.000000,0,0,0
4.090,-0.1471000,-0.0772000,9.6421000,60.9589000,62.7213000,67.2379000,-40.5510000,-13.1470000,5.0920000,0.000000,0,0,0
4.100,-0.1448000,-0.0640000,9.6409000,61.1191000,62.7060000,67.0166000,-40.8110000,-13.6030000,4.7750000,0.000000,0,0,0
4.110,-0.1412000,-0.0508000,9.6409000,61.2259000,62.7213000,67.0624000,-40.6070000,-13.2320000,5.1000000,0.000000,0,0,0
4.120,-0.1364000,-0.0449000,9.6433000,61.2030000,62.8128000,67.3141000,-40.3260000,-13.5900000,5.5120000,0.000000,0,0,0
4.130,-0.1316000,-0.0461000,9.6433000,61.0275000,62.9349000,67.6117000,-40.3840000,-13.2810000,5.0880000,0.000000,0,0,0
4.140,-0.1292000,-0.0556000,9.6433000,60.7376000,63.0646000,67.8024000,-40.3730000,-13.3150000,5.1020000,0.000000,0,0,0
4.150,-0.1304000,-0.0664000,9.6433000,60.4706000,63.1790000,67.8329000,-40.7230000,-13.1190000,4.8550000,0.000000,0,0,0
4.160,-0.1352000,-0.0760000,9.6421000,60.2951000,63.2401000,67.7490000,-40.4760000,-12.9790000,5.4070000,0.000000,0,0,0
4.170,-0.1424000,-0.0819000,9.6409000,60.2264000,63.2706000,67.6498000,-40.4290000,-13.2200000,5.0030000,0.000000,0,0,0
4.180,-0.1651000,-0.0843000,9.6397000,60.2798000,63.1866000,67.6346000,-40.7090000,-12.9890000,4.4350000,0.000000,0,0,0
4.190,-0.1747000,-0.0867000,9.6385000,60.4324000,63.0264000,67.7032000,-40.2910000,-13.0310000,5.4550000,0.000000,0,0,0
4.200,-0.1759000,-0.0867000,9.6385000,60.5316000,62.8357000,67.8101000,-40.6280000,-13.1820000,5.3800000,0.000000,0,0,0
4.210,-0.1639000,-0.0843000,9.6397000,60.5392000,62.7747000,67.8558000,-40.2550000,-13.0720000,4.9930000,0.000000,0,0,0
4.220,-0.1483000,-0.0796000,9.6433000,60.4553000,62.8128000,67.8329000,-40.4940000,-12.9030000,5.1520000,0.000000,0,0,0
4.230,-0.1388000,-0.0736000,9.6457000,60.2951000,62.9272000,67.8482000,-40.3830000,-12.8910000,5.0790000,0.000000,0,0,0
4.240,-0.1376000,-0.0676000,9.6457000,60.1273000,63.0493000,67.9245000,-40.9520000,-13.2990000,5.0470000,0.000000,0,0,0
4.250,-0.1388000,-0.0652000,9.6445000,60.0281000,63.1180000,68.0542000,-40.5160000,-13.0550000,5.5030000,0.000000,0,0,0
4.260,-0.1388000,-0.0604000,9.6433000,60.0510000,63.1256000,68.1381000,-40.5260000,-13.0290000,5.7220000,0.000000,0,0,0
4.270,-0.1388000,-0.0520000,9.6421000,60.1578000,63.0417000,68.0618000,-40.5680000,-13.2070000,5.1360000,0.000000,0,0,0
4.280,-0.1364000,-0.0496000,9.6409000,60.3104000,62.8891000,67.8177000,-40.3110000,-12.7620000,5.2660000,0.000000,0,0,0
4.290,-0.1340000,-0.0520000,9.6409000,60.4935000,62.7060000,67.5201000,-40.0940000,-13.2710000,5.6120000,0.000000,0,0,0
4.300,-0.1376000,-0.0616000,9.6445000,60.6308000,62.6068000,67.3447000,-40.5670000,-13.2430000,5.6610000,0.000000,0,0,0
4.310,-0.1436000,-0.0772000,9.6469000,60.6689000,62.6526000,67.3218000,-40.4150000,-13.4060000,5.0680000,0.000000,0,0,0
4.320,-0.1495000,-0.0927000,9.6469000,60.6613000,62.7823000,67.3981000,-40.2960000,-13.1220000,4.6700000,0.000000,0,0,0
4.330,-0.1531000,-0.1047000,9.6457000,60.6766000,62.9120000,67.4896000,-40.3010000,-13.3630000,5.3760000,0.000000,0,0,0
4.340,-0.1531000,-0.1095000,9.6421000,60.7071000,62.9501000,67.5735000,-40.4440000,-13.1410000,5.2070000,0.000000,0,0,0
4.350,-0.1555000,-0.1047000,9.6397000,60.8292000,62.8586000,67.6422000,-40.3530000,-13.2860000,5.6130000,0.000000,0,0,0
4.360,-0.1543000,-0.0939000,9.6385000,61.0352000,62.6907000,67.6880000,-40.5050000,-13.2740000,5.2770000,0.000000,0,0,0
4.370,-0.1495000,-0.0831000,9.6397000,61.2793000,62.5458000,67.6651000,-40.3800000,-13.2200000,5.0060000,0.000000,0,0,0
4.380,-0.1400000,-0.0724000,9.6421000,61.3861000,62.5076000,67.5735000,-40.4630000,-13.1670000,5.4100000,0.000000,0,0,0
4.390,-0.1316000,-0.0664000,9.6457000,61.2259000,62.6297000,67.4591000,-40.3120000,-13.0800000,5.1740000,0.000000,0,0,0
4.400,-0.1244000,-0.0664000,9.6469000,60.8444000,62.8967000,67.3981000,-40.5430000,-13.2190000,5.4340000,0.000000,0,0,0
4.410,-0.1208000,-0.0760000,9.6481000,60.4782000,63.2019000,67.4362000,-39.9880000,-13.2220000,5.7940000,0.000000,0,0,0
4.420,-0.1196000,-0.0879000,9.6493000,60.2875000,63.4384000,67.5812000,-40.1310000,-13.3510000,5.6630000,0.000000,0,0,0
4.430,-0.1280000,-0.0963000,9.6469000,60.3333000,63.4918000,67.7719000,-40.3940000,-13.3480000,5.4330000,0.000000,0,0,0
4.440,-0.1424000,-0.1011000,9.6457000,60.6003000,63.3469000,67.8787000,-40.4480000,-13.3970000,5.9310000,0.000000,0,0,0
4.450,-0.1543000,-0.0891000,9.6409000,60.9665000,63.1027000,67.7795000,-40.3220000,-13.3990000,5.0570000,0.000000,0,0,0
4.460,-0.1627000,-0.0664000,9.6361000,61.2183000,62.8357000,67.4973000,-40.4250000,-13.2720000,5.8540000,0.000000,0,0,0
4.470,-0.1723000,-0.0449000,9.6325000,61.2183000,62.6068000,67.2073000,-40.4320000,-13.0270000,5.9370000,0.000000,0,0,0
4.480,-0.1818000,-0.0353000,9.6301000,61.0809000,62.4695000,67.0853000,-40.2500000,-13.0680000,5.2950000,0.000000,0,0,0
4.490,-0.1866000,-0.0353000,9.6301000,60.9283000,62.3856000,67.1844000,-40.5290000,-13.3340000,5.7200000,0.000000,0,0,0
4.500,-0.1914000,-0.0413000,9.6301000,60.7605000,62.3093000,67.4362000,-40.2520000,-13.3440000,5.0620000,0.000000,0,0,0
4.510,-0.1890000,-0.0437000,9.6301000,60.5621000,62.2406000,67.7032000,-40.4460000,-13.2210000,5.1030000,0.000000,0,0,0
4.520,-0.1818000,-0.0473000,9.6313000,60.3867000,62.1490000,67.8558000,-40.2120000,-13.1670000,6.2420000,0.000000,0,0,0
4.530,-0.1651000,-0.0473000,9.6325000,60.3256000,62.0651000,67.8177000,-40.4290000,-12.9390000,5.4330000,0.000000,0,0,0
4.540,-0.1448000,-0.0449000,9.6373000,60.4019000,62.0041000,67.6422000,-40.4420000,-13.1890000,5.7700000,0.000000,0,0,0
4.550,-0.1256000,-0.0401000,9.6433000,60.4858000,62.0499000,67.4210000,-40.3400000,-13.2450000,5.9150000,0.000000,0,0,0
4.560,-0.1065000,-0.0365000,9.6493000,60.3867000,62.2253000,67.2684000,-40.6270000,-13.1370000,5.7260000,0.000000,0,0,0
4.570,-0.0885000,-0.0389000,9.6529000,60.1425000,62.5000000,67.1997000,-40.5160000,-13.1250000,5.7940000,0.000000,0,0,0
4.580,-0.0778000,-0.0496000,9.6564000,59.9518000,62.7975000,67.1997000,-40.4620000,-13.1220000,6.0150000,0.000000,0,0,0
4.590,-0.0813000,-0.0652000,9.6576000,59.9747000,62.9883000,67.2760000,-40.3310000,-13.2140000,5.8940000,0.000000,0,0,0
4.600,-0.0969000,-0.0724000,9.6541000,60.1883000,63.0417000,67.4210000,-40.4220000,-13.2060000,5.8660000,0.000000,0,0,0
4.610,-0.1196000,-0.0736000,9.6469000,60.4401000,62.9501000,67.5659000,-40.5150000,-13.1460000,5.5610000,0.000000,0,0,0
4.620,-0.1400000,-0.0604000,9.6373000,60.6003000,62.7823000,67.6117000,-40.3010000,-12.9320000,5.8440000,0.000000,0,0,0
4.630,-0.1543000,-0.0496000,9.6301000,60.6003000,62.5534000,67.5354000,-40.5000000,-13.2900000,6.1120000,0.000000,0,0,0
4.640,-0.1639000,-0.0568000,9.6277000,60.4935000,62.2940000,67.4744000,-40.3430000,-13.2040000,6.0920000,0.000000,0,0,0
4.650,-0.1639000,-0.0843000,9.6289000,60.4630000,62.0804000,67.5049000,-40.3650000,-13.3700000,5.4620000,0.000000,0,0,0
4.660,-0.1579000,-0.1142000,9.6349000,60.6461000,61.9354000,67.5964000,-40.4390000,-12.8690000,5.2590000,0.000000,0,0,0
4.670,-0.1448000,-0.1262000,9.6397000,60.9741000,61.8973000,67.6117000,-40.5000000,-12.6860000,6.2590000,0.000000,0,0,0
4.680,-0.1352000,-0.1130000,9.6421000,61.1954000,61.9888000,67.5125000,-40.4960000,-13.1930000,6.0260000,0.000000,0,0,0
4.690,-0.1304000,-0.0772000,9.6397000,61.0199000,62.2940000,67.2989000,-40.4030000,-13.0490000,5.7740000,0.000000,0,0,0
4.700,-0.1328000,-0.0532000,9.6361000,60.7529000,62.4771000,67.2226000,-40.3630000,-12.8440000,5.8250000,0.000000,0,0,0
4.710,-0.1280000,-0.0353000,9.6361000,60.5850000,62.5763000,67.2150000,-40.6950000,-12.9760000,5.8580000,0.000000,0,0,0
4.720,-0.1184000,-0.0257000,9.6385000,60.6003000,62.5687000,67.2455000,-40.3910000,-13.2660000,5.9500000,0.000000,0,0,0
4.730,-0.1041000,-0.0233000,9.6421000,60.7452000,62.5381000,67.2684000,-40.3870000,-13.2270000,5.4220000,0.000000,0,0,0
4.740,-0.0897000,-0.0257000,9.6457000,60.9055000,62.5534000,67.2760000,-40.5830000,-12.9130000,5.4410000,0.000000,0,0,0
4.750,-0.0790000,-0.0353000,9.6493000,61.0352000,62.6526000,67.2760000,-40.5630000,-12.9230000,5.2940000,0.000000,0,0,0
4.760,-0.0790000,-0.0461000,9.6505000,61.1115000,62.8052000,67.2531000,-40.5830000,-13.1300000,5.7540000,0.000000,0,0,0
4.770,-0.0885000,-0.0520000,9.6493000,61.1572000,62.9501000,67.1539000,-40.4570000,-13.0170000,5.7300000,0.000000,0,0,0
4.780,-0.1065000,-0.0496000,9.6433000,61.1725000,63.0264000,66.9632000,-40.4980000,-13.1520000,6.0900000,0.000000,0,0,0
4.790,-0.1304000,-0.0341000,9.6361000,61.1496000,62.9730000,66.7038000,-40.0860000,-13.0470000,5.9390000,0.000000,0,0,0
4.800,-0.1531000,-0.0197000,9.6277000,61.0962000,62.7670000,66.4749000,-40.6420000,-12.8280000,5.5830000,0.000000,0,0,0
4.810,-0.1651000,-0.0138000,9.6218000,61.1038000,62.4771000,66.3071000,-40.3690000,-12.8060000,5.6300000,0.000000,0,0,0
4.820,-0.1627000,-0.0197000,9.6229000,61.1877000,62.1948000,66.2613000,-40.3440000,-12.8370000,5.5440000,0.000000,0,0,0
4.830,-0.1507000,-0.0401000,9.6289000,61.2106000,62.0651000,66.3681000,-40.5960000,-13.0480000,5.8560000,0.000000,0,0,0
4.840,-0.1352000,-0.0628000,9.6373000,61.0733000,62.2330000,66.6275000,-40.6310000,-13.0180000,5.3940000,0.000000,0,0,0
4.850,-0.1172000,-0.0879000,9.6457000,60.7910000,62.6144000,66.9937000,-40.5300000,-13.0260000,5.5730000,0.000000,0,0,0
4.860,-0.1077000,-0.1059000,9.6493000,60.4935000,63.0646000,67.4057000,-40.2640000,-12.9950000,5.6710000,0.000000,0,0,0
4.870,-0.1041000,-0.1107000,9.6493000,60.3333000,63.4232000,67.7795000,-40.3410000,-13.1020000,6.0010000,0.000000,0,0,0
4.880,-0.1029000,-0.0975000,9.6469000,60.4019000,63.5376000,67.9703000,-40.7440000,-13.1530000,5.6790000,0.000000,0,0,0
4.890,-0.1017000,-0.0712000,9.6433000,60.6766000,63.4384000,67.9321000,-40.6050000,-12.8990000,5.5570000,0.000000,0,0,0
4.900,-0.1101000,-0.0377000,9.6397000,60.9970000,63.2095000,67.7643000,-40.2880000,-12.9270000,5.6640000,0.000000,0,0,0
4.910,-0.1208000,-0.0090000,9.6361000,61.1877000,62.9807000,67.5659000,-40.4210000,-12.9670000,5.4450000,0.000000,0,0,0
4.920,-0.1292000,0.0138000,9.6325000,61.1572000,62.8052000,67.3599000,-40.5200000,-12.9500000,5.9890000,0.000000,0,0,0
4.930,-0.1352000,0.0257000,9.6301000,60.9360000,62.6602000,67.1082000,-40.6780000,-13.2310000,5.2710000,0.000000,0,0,0
4.940,-0.1376000,0.0245000,9.6277000,60.6003000,62.4695000,66.7648000,-40.4870000,-12.9820000,5.9090000,0.000000,0,0,0
4.950,-0.1352000,0.0102000,9.6289000,60.3104000,62.2406000,66.3605000,-40.5600000,-12.9040000,5.1910000,0.000000,0,0,0
4.960,-0.1316000,-0.0138000,9.6325000,60.2188000,61.9736000,65.9561000,-40.3460000,-12.7540000,5.3100000,0.000000,0,0,0
4.970,-0.1280000,-0.0353000,9.6349000,60.3180000,61.7523000,65.7043000,-40.4610000,-12.8130000,5.6600000,0.000000,0,0,0
4.980,-0.1208000,-0.0496000,9.6385000,60.5164000,61.6379000,65.7501000,-40.7600000,-12.9030000,4.9910000,0.000000,0,0,0
4.990,-0.1160000,-0.0592000,9.6421000,60.6918000,61.7065000,66.1469000,-40.3100000,-12.9550000,5.0190000,0.000000,0,0,0
5.000,-0.1077000,-0.0628000,9.6445000,60.7605000,61.9659000,66.7801000,-40.6460000,-12.9550000,5.9630000,0.000000,0,0,0
5.010,-0.0969000,-0.0568000,9.6469000,60.7071000,62.3322000,67.4515000,-40.5410000,-12.9570000,5.3850000,0.000000,0,0,0
5.020,-0.0849000,-0.0473000,9.6469000,60.5850000,62.6984000,67.9703000,-40.6040000,-12.9200000,5.8280000,0.000000,0,0,0
5.030,-0.0813000,-0.0437000,9.6457000,60.5087000,62.9883000,68.2755000,-40.4920000,-13.0810000,5.1380000,0.000000,0,0,0
5.040,-0.0897000,-0.0520000,9.6433000,60.5316000,63.1561000,68.3899000,-40.6470000,-13.0420000,4.9630000,0.000000,0,0,0
5.050,-0.1005000,-0.0616000,9.6421000,60.6232000,63.1943000,68.3212000,-40.5200000,-13.2020000,5.3840000,0.000000,0,0,0
5.060,-0.1041000,-0.0628000,9.6385000,60.7986000,63.1027000,68.0008000,-40.4500000,-13.2110000,5.2770000,0.000000,0,0,0
5.070,-0.1065000,-0.0520000,9.6361000,60.9818000,62.9196000,67.4591000,-40.4320000,-13.0850000,5.6430000,0.000000,0,0,0
5.080,-0.1041000,-0.0365000,9.6361000,61.0886000,62.7823000,66.8640000,-40.6300000,-12.7880000,5.7820000,0.000000,0,0,0
5.090,-0.0993000,-0.0197000,9.6385000,61.1038000,62.7518000,66.4139000,-40.7560000,-12.9860000,5.5570000,0.000000,0,0,0
5.100,-0.0993000,-0.0066000,9.6421000,60.9665000,62.8891000,66.2460000,-40.4070000,-12.8440000,6.1980000,0.000000,0,0,0
5.110,-0.0993000,-0.0054000,9.6445000,60.6384000,63.2019000,66.3605000,-40.5150000,-12.7800000,5.4250000,0.000000,0,0,0
5.120,-0.0993000,-0.0066000,9.6445000,60.2417000,63.5223000,66.5817000,-40.4340000,-12.7420000,6.0540000,0.000000,0,0,0
5.130,-0.1053000,-0.0126000,9.6409000,59.9365000,63.6978000,66.7496000,-40.3800000,-12.8680000,5.8450000,0.000000,0,0,0
5.140,-0.1160000,-0.0245000,9.6373000,59.8831000,63.6292000,66.8106000,-40.4360000,-13.0170000,4.8890000,0.000000,0,0,0
5.150,-0.1256000,-0.0401000,9.6349000,60.1578000,63.3392000,66.8030000,-40.1770000,-12.9800000,5.0810000,0.000000,0,0,0
5.160,-0.1280000,-0.0473000,9.6349000,60.5927000,62.9959000,66.7419000,-40.4320000,-13.0780000,5.7140000,0.000000,0,0,0
5.170,-0.1220000,-0.0449000,9.6349000,60.9131000,62.7747000,66.6275000,-40.2740000,-13.0700000,5.2620000,0.000000,0,0,0
5.180,-0.1101000,-0.0377000,9.6373000,60.9741000,62.7670000,66.5207000,-40.3910000,-12.8060000,5.0440000,0.000000,0,0,0
5.190,-0.1005000,-0.0293000,9.6397000,60.7910000,62.9807000,66.5207000,-40.2930000,-13.0820000,5.2770000,0.000000,0,0,0
5.200,-0.0957000,-0.0257000,9.6421000,60.4477000,63.3621000,66.6962000,-40.3170000,-12.7900000,5.0810000,0.000000,0,0,0
5.210,-0.0969000,-0.0245000,9.6433000,60.0967000,63.7207000,67.0090000,-40.3780000,-13.2030000,4.6980000,0.000000,0,0,0
5.220,-0.1029000,-0.0257000,9.6421000,59.8907000,63.9343000,67.3065000,-40.2330000,-13.3250000,4.9480000,0.000000,0,0,0
5.230,-0.1113000,-0.0257000,9.6385000,59.8984000,63.8962000,67.4591000,-40.4700000,-13.0360000,4.4740000,0.000000,0,0,0
5.240,-0.1232000,-0.0185000,9.6349000,60.0739000,63.6673000,67.4133000,-40.3400000,-13.1720000,5.6150000,0.000000,0,0,0
5.250,-0.1352000,-0.0102000,9.6313000,60.3027000,63.3316000,67.2531000,-40.6050000,-13.0800000,5.2990000,0.000000,0,0,0
5.260,-0.1471000,-0.0102000,9.6289000,60.4858000,62.9730000,67.0853000,-40.2770000,-12.8080000,4.3440000,0.000000,0,0,0
5.270,-0.1519000,-0.0197000,9.6301000,60.6003000,62.7060000,66.9861000,-40.2390000,-12.8980000,4.3000000,0.000000,0,0,0
5.280,-0.1495000,-0.0317000,9.6325000,60.6308000,62.6068000,66.9556000,-40.4300000,-12.7950000,4.3840000,0.000000,0,0,0
5.290,-0.1400000,-0.0401000,9.6361000,60.4858000,62.7136000,66.9403000,-40.3020000,-13.0270000,5.0030000,0.000000,0,0,0
5.300,-0.1304000,-0.0401000,9.6385000,60.2112000,62.9272000,66.9098000,-40.6720000,-12.8160000,4.4930000,0.000000,0,0,0
5.310,-0.1232000,-0.0365000,9.6409000,59.9442000,63.1104000,66.9098000,-40.8520000,-12.9170000,4.8110000,0.000000,0,0,0
5.320,-0.1244000,-0.0317000,9.6397000,59.7687000,63.2019000,67.0471000,-40.4570000,-12.8950000,4.3560000,0.000000,0,0,0
5.330,-0.1208000,-0.0293000,9.6385000,59.8526000,63.1104000,67.1463000,-40.6610000,-12.7040000,5.1520000,0.000000,0,0,0
5.340,-0.1125000,-0.0257000,9.6373000,60.0510000,62.9501000,67.1463000,-40.3320000,-12.7180000,4.8080000,0.000000,0,0,0
5.350,-0.1125000,-0.0185000,9.6361000,60.2188000,62.8433000,67.0547000,-40.5490000,-12.9290000,5.0850000,0.000000,0,0,0
5.360,-0.1184000,-0.0185000,9.6361000,60.2112000,62.8967000,67.0166000,-40.4630000,-13.1240000,5.0690000,0.000000,0,0,0
5.370,-0.1280000,-0.0281000,9.6361000,60.0204000,63.1027000,67.0929000,-40.7970000,-13.1350000,4.9510000,0.000000,0,0,0
5.380,-0.1364000,-0.0461000,9.6373000,59.7534000,63.3316000,67.2379000,-40.6970000,-12.9700000,5.3060000,0.000000,0,0,0
5.390,-0.1388000,-0.0652000,9.6373000,59.5856000,63.4766000,67.3676000,-40.3570000,-13.0460000,5.4960000,0.000000,0,0,0
5.400,-0.1340000,-0.0736000,9.6361000,59.5932000,63.4689000,67.3904000,-40.7230000,-12.9040000,4.9580000,0.000000,0,0,0
5.410,-0.1292000,-0.0652000,9.6349000,59.7839000,63.2706000,67.2836000,-40.7830000,-12.9340000,5.2070000,0.000000,0,0,0
5.420,-0.1268000,-0.0473000,9.6337000,60.0739000,62.9578000,67.1158000,-40.3710000,-13.0080000,5.2090000,0.000000,0,0,0
5.430,-0.1232000,-0.0281000,9.6325000,60.3180000,62.6602000,66.9937000,-40.2690000,-12.9140000,5.2100000,0.000000,0,0,0
5.440,-0.1208000,-0.0173000,9.6337000,60.4324000,62.4619000,66.9556000,-40.2210000,-13.0180000,4.9070000,0.000000,0,0,0
5.450,-0.1172000,-0.0185000,9.6385000,60.4401000,62.4390000,66.9632000,-40.5450000,-12.7740000,5.5790000,0.000000,0,0,0
5.460,-0.1148000,-0.0257000,9.6433000,60.3409000,62.6068000,67.0090000,-40.5590000,-13.0040000,5.1130000,0.000000,0,0,0
5.470,-0.1148000,-0.0353000,9.6433000,60.1196000,62.8967000,67.0776000,-40.6690000,-12.8120000,4.9870000,0.000000,0,0,0
5.480,-0.1184000,-0.0449000,9.6421000,59.8373000,63.1714000,67.1844000,-40.6690000,-13.1220000,5.2100000,0.000000,0,0,0
5.490,-0.1268000,-0.0496000,9.6385000,59.6237000,63.3392000,67.2913000,-40.6560000,-12.8350000,4.3760000,0.000000,0,0,0
5.500,-0.1376000,-0.0449000,9.6349000,59.5779000,63.3316000,67.3599000,-40.7070000,-12.5910000,5.3000000,0.000000,0,0,0
5.510,-0.1436000,-0.0377000,9.6325000,59.7076000,63.1409000,67.3447000,-40.9400000,-12.9410000,5.9060000,0.000000,0,0,0
5.520,-0.1412000,-0.0329000,9.6313000,59.9442000,62.8815000,67.2302000,-40.5200000,-13.0230000,5.9660000,0.000000,0,0,0
5.530,-0.1280000,-0.0293000,9.6361000,60.1578000,62.6678000,67.0013000,-40.5850000,-12.8490000,6.1690000,0.000000,0,0,0
5.540,-0.1077000,-0.0293000,9.6421000,60.2798000,62.6221000,66.6580000,-40.6480000,-12.8430000,5.2360000,0.000000,0,0,0
5.550,-0.0921000,-0.0401000,9.6469000,60.3180000,62.7289000,66.3681000,-40.5410000,-12.8920000,5.1920000,0.000000,0,0,0
5.560,-0.0897000,-0.0568000,9.6517000,60.2722000,62.9730000,66.2689000,-40.5470000,-12.9630000,5.7590000,0.000000,0,0,0
5.570,-0.0909000,-0.0700000,9.6541000,60.1807000,63.2858000,66.3452000,-40.5770000,-12.8000000,5.5600000,0.000000,0,0,0
5.580,-0.1029000,-0.0688000,9.6505000,60.0739000,63.5681000,66.4978000,-40.4530000,-13.1050000,5.2850000,0.000000,0,0,0
5.590,-0.1220000,-0.0520000,9.6397000,59.9060000,63.7283000,66.6199000,-40.5510000,-12.8160000,5.4800000,0.000000,0,0,0
5.600,-0.1471000,-0.0365000,9.6301000,59.7382000,63.6826000,66.7419000,-40.6590000,-12.8810000,4.9010000,0.000000,0,0,0
5.610,-0.1723000,-0.0317000,9.6229000,59.7153000,63.4079000,66.8945000,-40.5300000,-13.1260000,5.2580000,0.000000,0,0,0
5.620,-0.1878000,-0.0341000,9.6218000,59.8373000,62.9654000,67.0853000,-40.5820000,-13.2430000,5.1100000,0.000000,0,0,0
5.630,-0.1890000,-0.0425000,9.6229000,59.9823000,62.4847000,67.2607000,-40.7940000,-12.9810000,5.4440000,0.000000,0,0,0
5.640,-0.1735000,-0.0592000,9.6265000,60.0510000,62.1185000,67.3523000,-40.6960000,-13.1920000,5.4380000,0.000000,0,0,0
5.650,-0.1495000,-0.0784000,9.6349000,60.0815000,61.9125000,67.3523000,-40.3450000,-13.4080000,5.1870000,0.000000,0,0,0
5.660,-0.1268000,-0.0867000,9.6409000,60.1044000,61.9736000,67.2913000,-40.5080000,-13.1690000,4.9690000,0.000000,0,0,0
5.670,-0.1053000,-0.0772000,9.6445000,60.1044000,62.1948000,67.1997000,-40.2980000,-13.1160000,5.1070000,0.000000,0,0,0
5.680,-0.0933000,-0.0628000,9.6457000,60.0586000,62.4847000,67.1005000,-40.6230000,-13.3340000,5.6070000,0.000000,0,0,0
5.690,-0.0909000,-0.0496000,9.6445000,59.9823000,62.7975000,67.0242000,-40.7020000,-13.2550000,5.3650000,0.000000,0,0,0
5.700,-0.0993000,-0.0389000,9.6421000,59.9213000,63.0035000,66.9479000,-40.4580000,-13.0960000,5.5950000,0.000000,0,0,0
5.710,-0.1089000,-0.0317000,9.6421000,59.9136000,63.0417000,66.7953000,-40.4330000,-13.2730000,5.2150000,0.000000,0,0,0
5.720,-0.1136000,-0.0341000,9.6397000,60.0357000,62.9807000,66.5359000,-40.4160000,-13.2350000,5.3470000,0.000000,0,0,0
5.730,-0.1196000,-0.0389000,9.6397000,60.2875000,62.8052000,66.1850000,-40.4910000,-13.1660000,5.1810000,0.000000,0,0,0
5.740,-0.1232000,-0.0413000,9.6421000,60.4858000,62.7289000,65.8722000,-40.7330000,-13.3090000,5.2890000,0.000000,0,0,0
5.750,-0.1292000,-0.0461000,9.6433000,60.5316000,62.8204000,65.7349000,-40.4950000,-12.9110000,5.4240000,0.000000,0,0,0
5.760,-0.1280000,-0.0520000,9.6433000,60.3714000,62.9654000,65.7730000,-40.5140000,-13.0020000,5.2550000,0.000000,0,0,0
5.770,-0.1280000,-0.0580000,9.6433000,60.1120000,63.2019000,65.9103000,-40.3330000,-12.9430000,4.9740000,0.000000,0,0,0
5.780,-0.1196000,-0.0616000,9.6445000,59.9213000,63.3774000,66.0095000,-40.4380000,-13.1340000,5.4430000,0.000000,0,0,0
5.790,-0.1101000,-0.0568000,9.6445000,59.9136000,63.4613000,65.9637000,-40.5220000,-13.1100000,5.9970000,0.000000,0,0,0
5.800,-0.1053000,-0.0508000,9.6457000,60.0433000,63.4537000,65.7959000,-40.6960000,-13.1560000,6.1550000,0.000000,0,0,0
5.810,-0.1029000,-0.0461000,9.6433000,60.1730000,63.4537000,65.5746000,-40.2550000,-13.0150000,5.6020000,0.000000,0,0,0
5.820,-0.1053000,-0.0353000,9.6433000,60.2264000,63.6597000,65.4144000,-40.3270000,-12.8420000,5.5080000,0.000000,0,0,0
5.830,-0.1077000,-0.0317000,9.6457000,60.1959000,63.8580000,65.3687000,-40.5750000,-12.8980000,5.1830000,0.000000,0,0,0
5.840,-0.0993000,-0.0425000,9.6493000,60.1807000,64.0945000,65.2847000,-40.7140000,-13.1380000,5.7380000,0.000000,0,0,0
5.850,-0.0933000,-0.0592000,9.6541000,60.2417000,64.3921000,65.0253000,-40.4900000,-13.0140000,5.6690000,0.000000,0,0,0
5.860,-0.0909000,-0.0676000,9.6588000,60.3638000,64.7354000,64.5523000,-40.5530000,-12.9830000,5.3810000,0.000000,0,0,0
5.870,-0.1041000,-0.0616000,9.6564000,60.5011000,65.0253000,63.8428000,-40.7180000,-12.8250000,5.3100000,0.000000,0,0,0
5.880,-0.0957000,-0.0425000,9.6529000,60.6384000,65.2390000,62.9883000,-40.8180000,-12.9690000,5.6480000,0.000000,0,0,0
5.890,-0.0981000,-0.0233000,9.6469000,60.7758000,65.1703000,62.1643000,-40.7060000,-12.9720000,5.6150000,0.000000,0,0,0
5.900,-0.1125000,-0.0090000,9.6445000,60.8978000,64.9796000,61.5387000,-40.8210000,-12.8920000,5.6860000,0.000000,0,0,0
5.910,-0.1184000,-0.0030000,9.6505000,60.9894000,64.8193000,61.1191000,-40.4810000,-13.0120000,5.7760000,0.000000,0,0,0
5.920,-0.1160000,-0.0042000,9.6541000,60.9741000,64.8117000,60.7452000,-40.8110000,-12.9190000,5.8880000,0.000000,0,0,0
5.930,-0.0981000,-0.0066000,9.6576000,60.7452000,65.1245000,60.2646000,-40.6550000,-12.7480000,5.7460000,0.000000,0,0,0
5.940,-0.0766000,-0.0233000,9.6576000,60.2417000,65.6509000,59.3033000,-40.8780000,-12.7200000,5.9730000,0.000000,0,0,0
5.950,-0.0981000,-0.0329000,9.6600000,60.0128000,65.9103000,58.8303000,-40.5110000,-12.7040000,5.8140000,0.000000,0,0,0
5.960,-0.1244000,-0.0245000,9.6612000,59.9899000,65.9409000,58.6548000,-40.7040000,-12.5440000,5.9420000,0.000000,0,0,0
5.970,-0.1495000,-0.0078000,9.6564000,60.2036000,65.6433000,58.6319000,-41.1010000,-12.5770000,5.6340000,0.000000,0,0,0
5.980,-0.1747000,-0.0042000,9.6469000,60.5927000,65.1093000,58.5480000,-41.0890000,-12.5790000,5.4150000,0.000000,0,0,0
5.990,-0.1902000,-0.0173000,9.6385000,61.1343000,64.6667000,58.1818000,-41.0170000,-12.5010000,5.4730000,0.000000,0,0,0
6.000,-0.1938000,-0.0401000,9.6361000,61.8134000,64.3463000,57.5104000,-40.9420000,-12.0060000,5.8970000,0.000000,0,0,0
6.010,-0.1926000,-0.0544000,9.6373000,62.6068000,64.0106000,56.6788000,-40.7140000,-12.1740000,5.7680000,0.000000,0,0,0
6.020,-0.1866000,-0.0568000,9.6349000,63.3469000,63.6902000,55.8624000,-40.9370000,-12.1530000,6.2030000,0.000000,0,0,0
6.030,-0.1842000,-0.0449000,9.6337000,63.6673000,63.7054000,55.2826000,-40.8290000,-12.0730000,5.9490000,0.000000,0,0,0
6.040,-0.1842000,-0.0257000,9.4932000,59.5551000,62.4161000,66.5512000,-40.8710000,-12.2390000,6.5960000,0.000000,0,0,0
6.050,-0.1878000,-0.0114000,9.6397000,62.8662000,64.5828000,54.8706000,-40.9770000,-12.1640000,5.8760000,0.000000,0,0,0
6.060,-0.1890000,0.0126000,9.6433000,62.3779000,64.8651000,54.8096000,-40.9920000,-12.2440000,5.8840000,0.000000,0,0,0
6.070,-0.1950000,0.0353000,9.6421000,62.1109000,64.8270000,54.7485000,-40.9510000,-12.2460000,6.0000000,0.000000,0,0,0
6.080,-0.2129000,0.0413000,9.6409000,61.9507000,64.5294000,54.7638000,-40.9130000,-12.0070000,6.0270000,0.000000,0,0,0
6.090,-0.2309000,0.0353000,9.6385000,61.8134000,64.1098000,54.8630000,-40.9890000,-11.8750000,6.4460000,0.000000,0,0,0
6.100,-0.2417000,0.0245000,9.6361000,61.7294000,64.0335000,54.8859000,-40.9950000,-12.0960000,6.3320000,0.000000,0,0,0
6.110,-0.2488000,0.0257000,9.6361000,61.7065000,64.2166000,54.7714000,-40.9490000,-11.8850000,6.2360000,0.000000,0,0,0
6.120,-0.2417000,0.0437000,9.6361000,61.6150000,64.4150000,54.4739000,-41.1550000,-11.9040000,6.9440000,0.000000,0,0,0
6.130,-0.2333000,0.0664000,9.6361000,61.3403000,64.7125000,53.9474000,-41.1260000,-11.6670000,6.6320000,0.000000,0,0,0
6.140,-0.2261000,0.0819000,9.6349000,60.9665000,64.9719000,53.2684000,-40.9520000,-11.6860000,6.7760000,0.000000,0,0,0
6.150,-0.2249000,0.0796000,9.6349000,60.7071000,65.0635000,52.5665000,-40.8080000,-11.5980000,6.4580000,0.000000,0,0,0
6.160,-0.2393000,0.0556000,9.6385000,60.7147000,64.8727000,51.9104000,-41.1420000,-11.9120000,5.8480000,0.000000,0,0,0
6.170,-0.2428000,0.0353000,9.6421000,61.0428000,64.6362000,51.2924000,-41.2310000,-11.5700000,5.3450000,0.000000,0,0,0
6.180,-0.2428000,0.0317000,9.6481000,61.5082000,64.5370000,50.6668000,-41.4500000,-11.4380000,6.2310000,0.000000,0,0,0
6.190,-0.2464000,0.0293000,9.6529000,61.8668000,64.5523000,50.0183000,-41.4520000,-11.2390000,5.8810000,0.000000,0,0,0
6.200,-0.2500000,0.0269000,9.6505000,61.9736000,64.7354000,49.3164000,-41.2420000,-11.6890000,6.0240000,0.000000,0,0,0
6.210,-0.2596000,0.0317000,9.6421000,61.8820000,65.0711000,48.6221000,-41.3910000,-11.4790000,6.0110000,0.000000,0,0,0
6.220,-0.2823000,0.0305000,9.6349000,61.6760000,65.1855000,48.1949000,-41.3410000,-11.3070000,5.8960000,0.000000,0,0,0
6.230,-0.3003000,0.0161000,9.6325000,61.5082000,65.0482000,48.0881000,-41.1600000,-10.8080000,5.5950000,0.000000,0,0,0
6.240,-0.2991000,-0.0006000,9.6361000,61.5082000,64.8270000,48.0652000,-41.5970000,-10.8870000,5.8080000,0.000000,0,0,0
6.250,-0.2823000,-0.0161000,9.6409000,61.7142000,64.5981000,47.8210000,-41.3190000,-10.9400000,5.2910000,0.000000,0,0,0
6.260,-0.2644000,-0.0173000,9.6433000,62.1185000,64.3768000,47.2794000,-41.5070000,-10.5030000,5.6660000,0.000000,0,0,0
6.270,-0.2548000,0.0161000,9.6433000,62.4771000,64.3845000,46.6309000,-41.3900000,-10.6070000,5.9370000,0.000000,0,0,0
6.280,-0.2536000,0.0676000,9.6457000,62.5763000,64.3768000,46.1349000,-41.5210000,-10.7600000,5.6900000,0.000000,0,0,0
6.290,-0.2512000,0.1011000,9.6457000,62.3245000,64.2014000,45.7153000,-41.5310000,-10.6780000,6.1390000,0.000000,0,0,0
6.300,-0.2584000,0.1119000,9.6433000,61.8210000,64.1556000,45.1736000,-41.6850000,-10.7310000,6.8340000,0.000000,0,0,0
6.310,-0.2680000,0.1202000,9.6397000,61.2946000,64.3158000,44.4794000,-41.5510000,-10.0220000,6.8210000,0.000000,0,0,0
6.320,-0.2740000,0.1310000,9.6385000,60.9207000,64.3768000,43.6859000,-41.9610000,-10.1310000,6.7680000,0.000000,0,0,0
6.330,-0.2847000,0.1358000,9.6361000,60.7071000,64.4608000,42.9688000,-41.8180000,-9.9810000,6.7670000,0.000000,0,0,0
6.340,-0.3015000,0.1274000,9.6397000,60.4477000,64.7049000,42.5720000,-42.1520000,-9.9780000,6.7630000,0.000000,0,0,0
6.350,-0.3039000,0.1119000,9.6409000,60.0357000,65.1016000,42.4652000,-41.6780000,-9.5450000,6.5050000,0.000000,0,0,0
6.360,-0.3003000,0.1011000,9.6469000,59.6237000,65.6433000,42.3584000,-41.7730000,-10.0300000,6.3840000,0.000000,0,0,0
6.370,-0.3063000,0.1047000,9.6529000,59.3643000,66.1774000,42.1219000,-41.9420000,-9.6380000,6.2670000,0.000000,0,0,0
6.380,-0.3122000,0.1154000,9.6552000,59.2499000,66.5817000,41.7862000,-41.9120000,-9.1960000,6.8010000,0.000000,0,0,0
6.390,-0.3278000,0.1130000,9.6541000,59.3338000,66.6046000,41.5115000,-42.0100000,-9.1730000,6.6980000,0.000000,0,0,0
6.400,-0.3338000,0.0843000,9.6469000,59.6237000,66.1774000,41.3055000,-42.0250000,-9.1660000,6.9620000,0.000000,0,0,0
6.410,-0.3266000,0.0604000,9.6457000,60.0891000,65.6052000,41.0156000,-42.0250000,-9.0450000,6.7560000,0.000000,0,0,0
6.420,-0.3134000,0.0796000,9.6469000,60.6308000,65.0330000,40.5197000,-42.0390000,-8.9520000,6.6740000,0.000000,0,0,0
6.430,-0.3074000,0.1286000,9.6517000,61.1038000,64.5981000,39.9094000,-42.1910000,-8.7660000,6.1900000,0.000000,0,0,0
6.440,-0.3182000,0.1800000,9.6576000,61.4166000,64.3997000,39.4211000,-41.8920000,-8.4780000,6.7180000,0.000000,0,0,0
6.450,-0.3314000,0.2135000,9.6660000,61.5463000,64.4531000,39.1693000,-41.9670000,-8.4750000,7.0960000,0.000000,0,0,0
6.460,-0.3338000,0.2279000,9.6732000,61.5387000,64.6896000,39.0091000,-42.0460000,-8.4760000,6.1500000,0.000000,0,0,0
6.470,-0.3230000,0.2315000,9.6780000,61.4471000,64.9796000,38.6963000,-42.0830000,-8.4840000,6.9310000,0.000000,0,0,0
6.480,-0.3015000,0.2399000,9.6744000,61.3480000,65.1627000,38.1088000,-42.2740000,-8.5750000,6.7030000,0.000000,0,0,0
6.490,-0.2895000,0.2518000,9.6660000,61.3251000,65.1932000,37.2925000,-42.4830000,-8.0580000,6.5420000,0.000000,0,0,0
6.500,-0.3003000,0.2482000,9.6648000,61.4243000,65.0864000,36.4761000,-42.5590000,-8.2580000,6.2740000,0.000000,0,0,0
6.510,-0.3338000,0.2291000,9.6684000,61.6302000,64.9490000,35.9650000,-42.3890000,-7.9570000,6.2980000,0.000000,0,0,0
6.520,-0.3732000,0.2111000,9.6708000,62.0422000,64.7736000,35.9116000,-42.6510000,-7.6730000,5.9340000,0.000000,0,0,0
6.530,-0.4127000,0.2267000,9.6648000,62.6373000,64.4608000,36.3922000,-42.4500000,-7.6360000,6.3960000,0.000000,0,0,0
6.540,-0.4378000,0.2530000,9.6445000,63.1561000,64.1022000,37.4603000,-42.2890000,-7.6540000,6.3960000,0.000000,0,0,0
6.550,-0.4498000,0.2590000,9.6277000,63.4460000,63.8733000,38.9938000,-42.3900000,-7.3970000,6.2120000,0.000000,0,0,0
6.560,-0.4402000,0.2494000,9.6206000,63.5147000,63.8123000,40.6036000,-42.3860000,-7.2700000,6.8590000,0.000000,0,0,0
6.570,-0.4163000,0.2327000,9.6229000,63.4003000,63.8580000,41.9769000,-42.1990000,-7.4490000,6.2520000,0.000000,0,0,0
6.580,-0.3924000,0.2028000,9.6265000,62.9807000,64.0564000,42.9916000,-42.3150000,-7.0620000,6.3590000,0.000000,0,0,0
6.590,-0.3924000,0.1573000,9.6337000,61.7981000,64.6896000,43.8004000,-42.3950000,-7.0350000,5.9420000,0.000000,0,0,0
6.600,-0.4163000,0.1477000,9.6505000,60.9131000,65.3458000,43.9682000,-42.5880000,-6.8550000,6.9800000,0.000000,0,0,0
6.610,-0.4450000,0.1788000,9.6684000,60.2036000,66.0248000,43.9987000,-42.7370000,-6.7950000,5.7270000,0.000000,0,0,0
6.620,-0.4630000,0.2375000,9.6708000,59.8145000,66.3757000,44.1437000,-42.5180000,-6.5530000,5.9660000,0.000000,0,0,0
6.630,-0.4510000,0.2710000,9.6588000,59.7458000,66.2842000,44.6472000,-42.8750000,-6.6310000,5.6450000,0.000000,0,0,0
6.640,-0.4163000,0.2494000,9.6433000,59.8526000,65.9409000,45.6085000,-42.9330000,-6.6040000,6.0640000,0.000000,0,0,0
6.650,-0.3900000,0.1753000,9.6337000,59.9136000,65.6891000,46.9589000,-42.8050000,-6.8280000,5.8480000,0.000000,0,0,0
6.660,-0.3756000,0.0867000,9.6313000,59.7382000,65.7806000,48.4848000,-42.6290000,-6.5570000,6.6190000,0.000000,0,0,0
6.670,-0.3936000,0.0185000,9.6409000,59.3033000,66.2460000,49.9115000,-42.5670000,-6.3510000,6.2270000,0.000000,0,0,0
6.680,-0.4438000,-0.0138000,9.6648000,58.8684000,66.7877000,51.0025000,-42.6220000,-6.1820000,7.0010000,0.000000,0,0,0
6.690,-0.5036000,-0.0066000,9.6864000,58.7616000,66.9250000,51.6281000,-42.5100000,-6.2570000,7.4050000,0.000000,0,0,0
6.700,-0.5527000,0.0353000,9.6887000,59.1278000,66.4368000,51.7731000,-42.5200000,-6.3910000,6.4440000,0.000000,0,0,0
6.710,-0.5838000,0.1178000,9.6672000,59.8450000,65.3305000,51.4526000,-42.7170000,-6.1490000,6.1560000,0.000000,0,0,0
6.720,-0.5850000,0.2255000,9.6301000,60.4477000,64.1327000,50.8194000,-42.5860000,-6.0830000,6.4010000,0.000000,0,0,0
6.730,-0.5670000,0.3212000,9.6062000,60.4477000,63.3850000,50.0031000,-42.6410000,-5.9080000,7.0570000,0.000000,0,0,0
6.740,-0.5479000,0.3762000,9.6038000,59.8068000,63.1561000,49.0646000,-42.8380000,-5.9190000,6.6280000,0.000000,0,0,0
6.750,-0.5312000,0.3786000,9.6229000,58.8455000,63.3698000,47.9813000,-42.8600000,-5.5940000,6.2290000,0.000000,0,0,0
6.760,-0.5228000,0.3344000,9.6517000,57.9987000,63.8504000,46.7758000,-42.8530000,-5.6230000,6.4630000,0.000000,0,0,0
6.770,-0.5323000,0.2650000,9.6852000,57.6324000,64.3311000,45.6085000,-43.0080000,-5.3850000,6.2950000,0.000000,0,0,0
6.780,-0.5491000,0.2135000,9.7163000,57.8918000,64.4913000,44.6091000,-42.8590000,-5.1840000,6.6870000,0.000000,0,0,0
6.790,-0.5670000,0.2028000,9.7318000,58.6472000,64.3005000,43.7775000,-42.6390000,-5.4010000,6.1120000,0.000000,0,0,0
6.800,-0.5646000,0.2207000,9.7139000,59.5627000,63.8504000,43.1061000,-42.4540000,-5.0200000,6.7440000,0.000000,0,0,0
6.810,-0.5431000,0.2422000,9.6588000,60.2951000,63.3087000,42.5034000,-42.9500000,-5.1760000,6.4000000,0.000000,0,0,0
6.820,-0.5144000,0.2422000,9.5823000,60.5774000,62.9959000,41.9083000,-42.6510000,-4.5140000,6.1610000,0.000000,0,0,0
6.830,-0.4857000,0.2195000,9.5344000,60.3714000,63.2858000,41.2750000,-43.0590000,-4.7810000,5.4260000,0.000000,0,0,0
6.840,-0.4773000,0.1729000,9.5488000,59.9747000,64.1479000,40.6189000,-43.1320000,-4.7160000,7.0780000,0.000000,0,0,0
6.850,-0.4845000,0.1358000,9.6146000,59.8373000,65.0406000,39.9323000,-43.3250000,-4.4370000,6.7080000,0.000000,0,0,0
6.860,-0.5024000,0.1442000,9.6887000,60.1120000,65.4755000,39.1922000,-43.2490000,-4.6330000,7.2160000,0.000000,0,0,0
6.870,-0.5168000,0.1800000,9.7354000,60.6461000,65.2618000,38.4445000,-43.0410000,-4.4300000,6.9270000,0.000000,0,0,0
6.880,-0.5192000,0.2040000,9.7366000,61.2106000,64.4455000,37.8036000,-43.3270000,-4.2340000,7.0300000,0.000000,0,0,0
6.890,-0.5048000,0.2004000,9.7019000,61.5997000,63.3926000,37.3459000,-43.1510000,-3.8090000,6.6900000,0.000000,0,0,0
6.900,-0.4797000,0.1956000,9.6541000,61.6989000,62.5153000,36.9415000,-42.9490000,-3.4530000,6.8980000,0.000000,0,0,0
6.910,-0.4606000,0.2243000,9.6301000,61.5768000,62.1719000,36.3693000,-43.1990000,-3.6250000,6.5260000,0.000000,0,0,0
6.920,-0.4618000,0.2817000,9.6529000,61.4700000,62.4008000,35.5835000,-43.1920000,-3.2880000,7.1630000,0.000000,0,0,0
6.930,-0.4797000,0.3523000,9.7127000,61.6455000,62.9349000,34.8663000,-42.9970000,-3.1490000,7.0080000,0.000000,0,0,0
6.940,-0.5132000,0.4049000,9.7761000,62.2101000,63.3163000,34.5688000,-43.0450000,-3.4350000,7.2080000,0.000000,0,0,0
6.950,-0.5515000,0.4109000,9.8215000,62.9959000,63.2477000,34.9274000,-43.0070000,-3.0730000,7.1870000,0.000000,0,0,0
6.960,-0.5706000,0.3810000,9.8299000,63.7512000,62.9120000,35.8124000,-43.0980000,-3.1290000,6.8060000,0.000000,0,0,0
6.970,-0.5599000,0.3439000,9.7928000,64.3616000,62.5305000,36.8195000,-43.0200000,-3.2450000,6.7470000,0.000000,0,0,0
6.980,-0.5300000,0.3188000,9.7414000,64.7736000,62.3169000,37.5366000,-43.5280000,-2.9700000,6.6490000,0.000000,0,0,0
6.990,-0.5096000,0.3296000,9.7067000,65.0024000,62.5076000,37.9257000,-43.1760000,-2.7680000,6.4860000,0.000000,0,0,0
7.000,-0.5156000,0.3571000,9.7007000,65.1779000,62.9349000,38.2996000,-43.5950000,-2.3330000,6.6670000,0.000000,0,0,0
7.010,-0.5419000,0.3607000,9.7043000,65.4755000,63.1561000,39.1006000,-43.3300000,-2.3330000,6.0050000,0.000000,0,0,0
7.020,-0.5718000,0.3152000,9.6995000,66.0019000,62.9120000,40.5579000,-43.2420000,-2.0840000,6.3170000,0.000000,0,0,0
7.030,-0.5838000,0.2458000,9.6768000,66.5817000,62.3169000,42.5034000,-43.3700000,-2.0070000,5.5940000,0.000000,0,0,0
7.040,-0.5718000,0.1992000,9.6397000,66.9556000,61.7371000,44.4183000,-43.6880000,-1.9370000,6.2480000,0.000000,0,0,0
7.050,-0.5467000,0.2076000,9.5859000,66.9403000,61.5005000,45.8221000,-43.4470000,-2.1850000,6.0660000,0.000000,0,0,0
7.060,-0.5120000,0.2698000,9.5392000,66.4825000,61.6455000,46.3486000,-43.1680000,-1.7370000,6.4400000,0.000000,0,0,0
7.070,-0.4845000,0.3595000,9.5380000,65.7120000,62.2482000,45.8527000,-43.4000000,-1.3810000,6.4170000,0.000000,0,0,0
7.080,-0.4833000,0.4396000,9.5667000,64.8499000,63.1104000,44.7083000,-43.3740000,-1.4210000,6.2510000,0.000000,0,0,0
7.090,-0.5036000,0.4935000,9.6038000,64.0411000,63.9191000,43.4189000,-43.3790000,-1.3810000,6.2100000,0.000000,0,0,0
7.100,-0.5252000,0.5150000,9.6385000,63.3926000,64.4608000,42.3737000,-43.3590000,-1.3110000,5.8880000,0.000000,0,0,0
7.110,-0.5455000,0.4959000,9.6588000,62.9501000,64.7049000,41.6946000,-43.2240000,-1.1700000,5.2970000,0.000000,0,0,0
7.120,-0.5623000,0.4468000,9.6696000,62.7899000,64.7049000,41.4047000,-43.5000000,-0.9220000,6.6110000,0.000000,0,0,0
7.130,-0.5694000,0.3990000,9.6732000,62.9349000,64.5065000,41.3437000,-43.1530000,-0.7080000,6.1480000,0.000000,0,0,0
7.140,-0.5670000,0.3655000,9.6672000,63.2324000,64.1479000,41.2750000,-43.5470000,-0.7390000,6.0830000,0.000000,0,0,0
7.150,-0.5682000,0.3463000,9.6600000,63.4995000,63.6749000,40.9927000,-43.1080000,-0.7060000,5.7560000,0.000000,0,0,0
7.160,-0.5694000,0.3368000,9.6660000,63.6444000,63.3545000,40.3976000,-43.3560000,-0.4720000,6.3400000,0.000000,0,0,0
7.170,-0.5706000,0.3356000,9.6780000,63.6749000,63.1332000,39.4821000,-43.1540000,-0.4580000,6.3540000,0.000000,0,0,0
7.180,-0.5814000,0.3451000,9.6804000,63.6215000,62.7670000,38.3453000,-43.4590000,-0.3970000,7.3060000,0.000000,0,0,0
7.190,-0.5874000,0.4133000,9.6612000,63.1714000,62.1567000,36.5448000,-43.3170000,-0.0530000,6.3660000,0.000000,0,0,0
7.200,-0.5754000,0.4624000,9.6373000,62.4542000,61.9507000,35.4462000,-43.2410000,0.0740000,7.2230000,0.000000,0,0,0
7.210,-0.5730000,0.4755000,9.6062000,61.5158000,61.7676000,34.5612000,-43.4490000,0.1030000,5.8420000,0.000000,0,0,0
7.220,-0.5850000,0.4492000,9.5895000,60.5392000,61.6608000,33.8974000,-43.4410000,0.4700000,6.2050000,0.000000,0,0,0
7.230,-0.5993000,0.4097000,9.5906000,59.6390000,61.7294000,33.3710000,-43.3020000,0.4440000,6.0850000,0.000000,0,0,0
7.240,-0.6113000,0.3882000,9.6026000,58.9600000,61.8286000,32.9208000,-43.4140000,0.5620000,6.2100000,0.000000,0,0,0
7.250,-0.6137000,0.4037000,9.6194000,58.6090000,61.6531000,32.6385000,-43.2370000,0.8030000,6.1040000,0.000000,0,0,0
7.260,-0.6065000,0.4396000,9.6253000,58.5709000,61.0962000,32.7225000,-43.4620000,1.0320000,6.4010000,0.000000,0,0,0
7.270,-0.6209000,0.4600000,9.5835000,58.6319000,60.1196000,33.3633000,-43.5020000,1.1210000,5.9100000,0.000000,0,0,0
7.280,-0.7082000,0.4109000,9.4854000,58.1436000,59.0057000,34.7977000,-43.2560000,1.3180000,6.5860000,0.000000,0,0,0
7.290,-0.8278000,0.2817000,9.4256000,56.5186000,59.1507000,37.0789000,-43.3500000,1.1300000,5.7530000,0.000000,0,0,0
7.300,-0.9044000,0.1453000,9.4351000,54.3289000,61.3174000,39.3906000,-43.5120000,1.3620000,6.1420000,0.000000,0,0,0
7.310,-0.9367000,0.0987000,9.4890000,52.9099000,63.7512000,40.7257000,-43.1620000,1.5830000,5.6350000,0.000000,0,0,0
7.320,-0.9463000,0.1585000,9.5548000,53.0930000,64.5752000,40.7639000,-43.2470000,1.3840000,5.7200000,0.000000,0,0,0
7.330,-0.9415000,0.2781000,9.5966000,54.5883000,63.7589000,40.0620000,-43.0970000,1.7580000,5.8040000,0.000000,0,0,0
7.340,-0.9104000,0.3822000,9.6229000,56.5491000,62.3169000,39.4745000,-43.2430000,1.5460000,5.5970000,0.000000,0,0,0
7.350,-0.8625000,0.4241000,9.6349000,58.2428000,61.1496000,39.4974000,-43.4450000,1.6890000,5.7860000,0.000000,0,0,0
7.360,-0.7860000,0.4157000,9.6182000,59.2041000,60.7529000,40.1077000,-43.5580000,1.9500000,5.9020000,0.000000,0,0,0
7.370,-0.6723000,0.3846000,9.5871000,59.3948000,61.0733000,40.8020000,-43.5050000,2.0820000,5.4750000,0.000000,0,0,0
7.380,-0.5551000,0.3523000,9.5572000,59.0134000,61.7676000,40.9698000,-43.6280000,2.2890000,6.6110000,0.000000,0,0,0
7.390,-0.4402000,0.3380000,9.5607000,58.4488000,62.6373000,40.2756000,-43.3710000,2.2450000,6.4480000,0.000000,0,0,0
7.400,-0.3362000,0.3667000,9.6050000,58.1589000,63.5910000,38.6734000,-43.6300000,2.5550000,6.3880000,0.000000,0,0,0
7.410,-0.2751000,0.4384000,9.6899000,58.5327000,64.3387000,36.4151000,-43.3870000,2.7270000,6.7160000,0.000000,0,0,0
7.420,-0.2751000,0.5329000,9.7785000,59.4559000,64.6744000,34.1568000,-43.3750000,2.7670000,6.5850000,0.000000,0,0,0
7.430,-0.3326000,0.6071000,9.8395000,60.2036000,64.6973000,32.5928000,-43.1580000,3.0850000,6.5220000,0.000000,0,0,0
7.440,-0.4534000,0.6131000,9.8778000,59.9747000,64.7278000,32.2189000,-43.3340000,3.0020000,6.7030000,0.000000,0,0,0
7.450,-0.6173000,0.5473000,9.8981000,58.7082000,64.6667000,33.2642000,-43.3010000,3.4530000,6.6790000,0.000000,0,0,0
7.460,-0.7668000,0.4576000,9.9089000,57.1747000,63.7589000,35.3165000,-43.4590000,3.2290000,6.1020000,0.000000,0,0,0
7.470,-0.8661000,0.3858000,9.9136000,56.3889000,61.2106000,37.5977000,-43.2610000,3.3700000,6.1160000,0.000000,0,0,0
7.480,-0.9092000,0.3403000,9.8921000,56.5567000,57.7621000,39.3372000,-43.5160000,3.5250000,6.0570000,0.000000,0,0,0
7.490,-0.8972000,0.3427000,9.8311000,57.1976000,54.6265000,40.0085000,-43.3970000,4.1190000,5.8850000,0.000000,0,0,0
7.500,-0.8422000,0.3882000,9.7725000,57.8156000,52.7954000,39.6118000,-43.5570000,3.4540000,6.3480000,0.000000,0,0,0
7.510,-0.7596000,0.4456000,9.7426000,58.3267000,52.5360000,38.6200000,-43.5150000,3.9210000,6.0040000,0.000000,0,0,0
7.520,-0.6735000,0.4887000,9.7330000,58.8684000,53.3218000,37.6511000,-43.4050000,3.9380000,6.3630000,0.000000,0,0,0
7.530,-0.6017000,0.5150000,9.7270000,59.5093000,54.6265000,37.2391000,-43.6870000,4.2520000,5.8550000,0.000000,0,0,0
7.540,-0.5419000,0.5306000,9.7127000,59.9442000,55.8548000,37.3077000,-43.5360000,4.4390000,6.2720000,0.000000,0,0,0
7.550,-0.4893000,0.5318000,9.6995000,59.8297000,56.9611000,37.3993000,-43.1810000,4.3850000,5.8040000,0.000000,0,0,0
7.560,-0.4594000,0.5066000,9.6756000,59.0439000,58.3038000,37.2925000,-43.0210000,4.5540000,6.3500000,0.000000,0,0,0
7.570,-0.4594000,0.4672000,9.6600000,57.8232000,59.6771000,37.0636000,-43.3140000,4.7060000,6.5830000,0.000000,0,0,0
7.580,-0.4809000,0.4337000,9.6552000,56.6864000,60.5011000,36.9873000,-43.4770000,5.0670000,6.5310000,0.000000,0,0,0
7.590,-0.5072000,0.4169000,9.6481000,55.9540000,60.6003000,37.3154000,-43.3980000,4.9740000,6.0540000,0.000000,0,0,0
7.600,-0.5288000,0.4217000,9.6265000,55.6259000,60.3333000,38.0783000,-43.2530000,5.2700000,6.3190000,0.000000,0,0,0
7.610,-0.5431000,0.4253000,9.6122000,55.5267000,60.2188000,39.1235000,-43.2700000,5.3980000,6.4000000,0.000000,0,0,0
7.620,-0.5587000,0.3954000,9.6170000,55.6335000,60.4553000,40.1764000,-43.1450000,5.2580000,6.0580000,0.000000,0,0,0
7.630,-0.5742000,0.3260000,9.6349000,56.1829000,60.4553000,41.0385000,-43.3070000,5.5620000,6.0060000,0.000000,0,0,0
7.640,-0.5826000,0.2422000,9.6588000,57.4112000,59.8450000,41.5497000,-43.2190000,5.7220000,6.1160000,0.000000,0,0,0
7.650,-0.5694000,0.1848000,9.6887000,59.0973000,59.0210000,41.5802000,-43.2260000,5.7100000,5.2760000,0.000000,0,0,0
7.660,-0.5359000,0.2016000,9.7151000,60.7834000,58.2504000,41.0995000,-43.4190000,5.6790000,6.1780000,0.000000,0,0,0
7.670,-0.4797000,0.3009000,9.7306000,61.9659000,57.7316000,40.2527000,-43.3100000,5.8170000,5.5740000,0.000000,0,0,0
7.680,-0.4187000,0.4432000,9.7294000,62.2253000,57.7316000,39.4287000,-43.2530000,6.1490000,5.5840000,0.000000,0,0,0
7.690,-0.3828000,0.5581000,9.7103000,61.4319000,58.3572000,39.1312000,-43.3810000,6.3140000,5.4310000,0.000000,0,0,0
7.700,-0.3768000,0.6059000,9.6911000,59.8297000,59.2804000,39.5813000,-43.4030000,6.6230000,5.8130000,0.000000,0,0,0
7.710,-0.3744000,0.5712000,9.6864000,57.9224000,60.3943000,40.4129000,-43.1070000,6.4890000,5.0770000,0.000000,0,0,0
7.720,-0.3960000,0.4791000,9.6947000,56.2286000,61.5234000,41.2598000,-42.9310000,6.6580000,5.8360000,0.000000,0,0,0
7.730,-0.4187000,0.3906000,9.7127000,55.1529000,62.3016000,41.9998000,-43.1920000,6.6840000,6.4320000,0.000000,0,0,0
7.740,-0.4426000,0.3272000,9.7342000,54.7791000,62.4466000,42.6102000,-42.8680000,6.8370000,5.3390000,0.000000,0,0,0
7.750,-0.4725000,0.2781000,9.7462000,54.9545000,61.7752000,43.1976000,-42.9550000,7.1520000,6.3180000,0.000000,0,0,0
7.760,-0.4893000,0.2458000,9.7438000,55.4123000,60.3943000,43.7164000,-42.7740000,7.1260000,6.3050000,0.000000,0,0,0
7.770,-0.4905000,0.2470000,9.7258000,55.8472000,58.8989000,44.0445000,-42.7570000,7.1510000,5.8140000,0.000000,0,0,0
7.780,-0.4701000,0.2734000,9.6971000,55.9464000,57.8461000,44.1895000,-43.0310000,7.4500000,5.8530000,0.000000,0,0,0
7.790,-0.4486000,0.3009000,9.6732000,55.6488000,57.2968000,44.2123000,-42.8210000,7.4530000,6.1350000,0.000000,0,0,0
7.800,-0.4163000,0.3104000,9.6612000,54.6646000,57.3959000,44.0445000,-42.8490000,7.4330000,6.1070000,0.000000,0,0,0
7.810,-0.4079000,0.2865000,9.6636000,53.9551000,57.6782000,43.8080000,-43.1760000,7.5360000,6.2440000,0.000000,0,0,0
7.820,-0.4031000,0.2327000,9.6732000,53.3752000,57.7850000,43.1671000,-43.0090000,7.7120000,5.7070000,0.000000,0,0,0
7.830,-0.3984000,0.1669000,9.6744000,52.8336000,57.9071000,41.8625000,-42.9870000,7.9200000,5.2540000,0.000000,0,0,0
7.840,-0.3852000,0.1453000,9.6648000,52.2919000,58.1894000,39.9170000,-42.8900000,8.1390000,5.7930000,0.000000,0,0,0
7.850,-0.3625000,0.1896000,9.6612000,51.7044000,58.6548000,37.5824000,-42.5050000,8.0450000,5.2190000,0.000000,0,0,0
7.860,-0.3481000,0.2614000,9.6600000,50.9262000,59.3948000,35.4767000,-42.3990000,8.1290000,5.8720000,0.000000,0,0,0
7.870,-0.3517000,0.3116000,9.6612000,50.0259000,60.2417000,34.1492000,-42.9090000,8.4660000,5.8010000,0.000000,0,0,0
7.880,-0.3637000,0.3224000,9.6744000,49.2935000,61.1801000,33.7372000,-42.5400000,8.3320000,4.8810000,0.000000,0,0,0
7.890,-0.3888000,0.2913000,9.6840000,49.0112000,62.0422000,34.1034000,-42.7290000,8.4890000,5.3930000,0.000000,0,0,0
7.900,-0.4115000,0.2303000,9.6959000,49.2859000,62.5305000,34.9350000,-42.6250000,8.4270000,5.2670000,0.000000,0,0,0
7.910,-0.4247000,0.1621000,9.7043000,50.0259000,62.5916000,35.7971000,-42.5100000,8.7870000,5.1120000,0.000000,0,0,0
7.920,-0.4271000,0.1107000,9.7031000,50.9262000,62.1109000,36.3541000,-42.8220000,8.8120000,5.3910000,0.000000,0,0,0
7.930,-0.4163000,0.0915000,9.6995000,51.5671000,61.1954000,36.4761000,-42.6080000,9.0130000,5.4850000,0.000000,0,0,0
7.940,-0.3984000,0.1083000,9.6864000,51.5213000,60.3943000,36.1786000,-42.7000000,9.3810000,5.2500000,0.000000,0,0,0
7.950,-0.3816000,0.1453000,9.6684000,50.6592000,60.0967000,35.6293000,-42.2860000,9.6090000,5.2030000,0.000000,0,0,0
7.960,-0.3732000,0.1812000,9.6576000,49.3011000,60.3256000,35.0342000,-42.3300000,9.6950000,5.6010000,0.000000,0,0,0
7.970,-0.3768000,0.1944000,9.6600000,48.0118000,60.7834000,34.5078000,-42.1580000,9.7460000,5.4930000,0.000000,0,0,0
7.980,-0.3888000,0.1741000,9.6840000,47.3328000,61.1649000,34.2255000,-42.3470000,10.1040000,5.7840000,0.000000,0,0,0
7.990,-0.4091000,0.1154000,9.7175000,47.5159000,61.3022000,34.3552000,-42.1690000,9.9720000,5.1530000,0.000000,0,0,0
8.000,-0.4091000,0.0209000,9.7318000,48.5077000,61.1649000,34.8816000,-42.2520000,10.1050000,5.9930000,0.000000,0,0,0
8.010,-0.3876000,-0.0724000,9.7163000,49.9649000,60.9741000,35.3928000,-41.9180000,10.0750000,6.0310000,0.000000,0,0,0
8.020,-0.3529000,-0.1394000,9.6911000,51.5060000,60.6766000,35.4767000,-42.3040000,10.5260000,6.1670000,0.000000,0,0,0
8.030,-0.3194000,-0.1848000,9.6696000,52.9022000,60.2264000,35.1410000,-41.8460000,10.2740000,6.2260000,0.000000,0,0,0
8.040,-0.2955000,-0.2159000,9.6672000,54.1077000,59.8373000,34.5688000,-42.1550000,10.4600000,5.7880000,0.000000,0,0,0
8.050,-0.2656000,-0.2147000,9.6899000,55.1376000,59.8526000,33.8211000,-41.7480000,10.8550000,5.8330000,0.000000,0,0,0
8.060,-0.2440000,-0.1872000,9.7258000,55.9769000,60.3180000,32.6996000,-42.0100000,10.6420000,6.1630000,0.000000,0,0,0
8.070,-0.2285000,-0.1453000,9.7653000,56.7703000,61.0580000,31.0364000,-41.6220000,11.2700000,5.4730000,0.000000,0,0,0
8.080,-0.2141000,-0.0807000,9.8096000,57.7164000,61.8820000,28.9612000,-41.5440000,11.0180000,5.5730000,0.000000,0,0,0
8.090,-0.1926000,0.0030000,9.8538000,58.9294000,62.6373000,26.8631000,-41.6420000,11.7590000,6.3960000,0.000000,0,0,0
8.100,-0.1639000,0.0915000,9.8861000,60.4019000,63.2477000,25.1007000,-41.5560000,11.9540000,5.1740000,0.000000,0,0,0
8.110,-0.1495000,0.1681000,9.8885000,62.0880000,63.4155000,24.0173000,-41.2880000,12.0660000,5.9510000,0.000000,0,0,0
8.120,-0.1436000,0.2255000,9.8610000,63.7207000,63.1790000,23.8037000,-41.0620000,11.9680000,5.6810000,0.000000,0,0,0
8.130,-0.1352000,0.2590000,9.8096000,65.0558000,62.7823000,24.3683000,-40.8560000,12.1540000,6.0480000,0.000000,0,0,0
8.140,-0.1340000,0.2566000,9.7462000,65.9866000,62.4237000,25.5585000,-40.7510000,12.2190000,5.4930000,0.000000,0,0,0
8.150,-0.1436000,0.2291000,9.6756000,66.6962000,62.1338000,27.2751000,-40.7880000,12.3300000,5.7250000,0.000000,0,0,0
8.160,-0.1495000,0.1968000,9.6038000,67.4744000,61.7599000,29.2587000,-40.9750000,12.4290000,5.8970000,0.000000,0,0,0
8.170,-0.1507000,0.1645000,9.5284000,68.3136000,61.5921000,31.0287000,-40.5020000,12.8530000,5.5840000,0.000000,0,0,0
8.180,-0.1507000,0.1453000,9.4591000,68.8629000,62.1338000,32.0892000,-40.6510000,12.4460000,5.2830000,0.000000,0,0,0
8.190,-0.1436000,0.1501000,9.4184000,68.7561000,63.6444000,32.1960000,-40.6340000,12.8300000,5.6940000,0.000000,0,0,0
8.200,-0.1567000,0.1645000,9.4124000,67.9779000,65.9561000,31.4865000,-40.7660000,12.7040000,5.7710000,0.000000,0,0,0
8.210,-0.1938000,0.1717000,9.4124000,66.7267000,68.4814000,30.1514000,-40.0830000,13.5440000,5.2240000,0.000000,0,0,0
8.220,-0.2584000,0.1621000,9.4196000,65.2008000,70.6253000,28.5568000,-40.0060000,13.5550000,5.5180000,0.000000,0,0,0
8.230,-0.3493000,0.1609000,9.4447000,63.6368000,71.9299000,27.2217000,-40.0380000,13.7160000,5.7480000,0.000000,0,0,0
8.240,-0.4414000,0.1860000,9.4782000,62.0728000,72.1970000,26.3824000,-40.1450000,14.1120000,5.9930000,0.000000,0,0,0
8.250,-0.5120000,0.2231000,9.5009000,60.3943000,71.3120000,26.1078000,-39.7320000,14.1230000,5.5290000,0.000000,0,0,0
8.260,-0.5658000,0.2470000,9.5009000,58.4869000,69.3893000,26.4282000,-40.0580000,14.5910000,6.0820000,0.000000,0,0,0
8.270,-0.6065000,0.2530000,9.4938000,56.3736000,67.1844000,27.2064000,-39.6540000,14.5990000,6.0420000,0.000000,0,0,0
8.280,-0.6137000,0.2458000,9.4734000,54.2145000,65.2237000,27.9007000,-39.5790000,14.3730000,5.6180000,0.000000,0,0,0
8.290,-0.6041000,0.2088000,9.4435000,52.2079000,63.8504000,28.0151000,-39.2710000,14.6020000,5.8360000,0.000000,0,0,0
8.300,-0.5969000,0.1561000,9.4124000,50.7584000,63.2935000,27.4124000,-39.3310000,14.8300000,6.0850000,0.000000,0,0,0
8.310,-0.5718000,0.1394000,9.4148000,50.1785000,63.3774000,26.1765000,-38.9460000,14.8720000,6.3020000,0.000000,0,0,0
8.320,-0.5431000,0.1705000,9.4626000,50.1328000,64.3539000,24.4904000,-38.8750000,14.9920000,6.2370000,0.000000,0,0,0
8.330,-0.5407000,0.2099000,9.5272000,50.2472000,65.9103000,22.9034000,-38.6100000,14.9710000,6.3150000,0.000000,0,0,0
8.340,-0.5694000,0.2147000,9.6002000,50.4074000,67.2684000,22.1558000,-38.5280000,15.2690000,6.0900000,0.000000,0,0,0
8.350,-0.6065000,0.1753000,9.6696000,50.7584000,68.1534000,22.5449000,-38.5970000,15.2730000,6.5190000,0.000000,0,0,0
8.360,-0.6400000,0.1095000,9.7222000,51.5976000,68.1229000,23.7656000,-38.4480000,15.5300000,6.0320000,0.000000,0,0,0
8.370,-0.6735000,0.0449000,9.7545000,52.9709000,67.1616000,25.1846000,-38.3190000,15.7090000,6.0640000,0.000000,0,0,0
8.380,-0.6927000,0.0233000,9.7653000,54.7180000,65.5136000,26.1612000,-38.3510000,16.0880000,6.5550000,0.000000,0,0,0
8.390,-0.6831000,0.0592000,9.7581000,56.4957000,63.5223000,26.4511000,-38.1830000,16.2860000,6.2310000,0.000000,0,0,0
8.400,-0.6580000,0.1250000,9.7270000,57.7469000,61.7065000,26.1536000,-38.0300000,16.1360000,6.3090000,0.000000,0,0,0
8.410,-0.6424000,0.1669000,9.6792000,58.0139000,60.5774000,25.6805000,-38.0290000,16.4330000,5.6010000,0.000000,0,0,0
8.420,-0.6436000,0.1465000,9.6277000,56.7398000,60.2188000,25.6042000,-37.8770000,16.2180000,5.9680000,0.000000,0,0,0
8.430,-0.6269000,0.1358000,9.6301000,55.2902000,60.4782000,25.9094000,-37.4540000,16.3990000,6.2590000,0.000000,0,0,0
8.440,-0.5886000,0.1645000,9.6421000,53.8025000,60.6537000,26.1917000,-37.5690000,16.5280000,6.2980000,0.000000,0,0,0
8.450,-0.5467000,0.2076000,9.6313000,52.5894000,60.3867000,26.5808000,-37.4170000,16.6940000,5.4880000,0.000000,0,0,0
8.460,-0.4977000,0.2411000,9.6158000,51.6586000,60.4401000,27.3743000,-37.2880000,16.6370000,5.6500000,0.000000,0,0,0
8.470,-0.4510000,0.2446000,9.6014000,51.1322000,61.3632000,28.6102000,-36.9150000,17.1130000,5.6210000,0.000000,0,0,0
8.480,-0.4402000,0.1776000,9.5906000,51.2466000,62.5763000,30.1743000,-37.0960000,16.8450000,5.9500000,0.000000,0,0,0
8.490,-0.4450000,0.0604000,9.6002000,52.0477000,63.8733000,31.8222000,-37.0200000,17.1880000,6.2440000,0.000000,0,0,0
8.500,-0.4522000,-0.0568000,9.6253000,53.4058000,65.0406000,33.2108000,-36.7990000,16.9560000,5.8310000,0.000000,0,0,0
8.510,-0.4689000,-0.1394000,9.6624000,55.0995000,65.5441000,34.1263000,-37.0900000,17.2760000,5.6610000,0.000000,0,0,0
8.520,-0.4953000,-0.1788000,9.6959000,56.8085000,65.2771000,34.6298000,-37.2270000,17.3750000,6.8470000,0.000000,0,0,0
8.530,-0.5395000,-0.2327000,9.7234000,57.9605000,64.4608000,34.9731000,-36.9690000,17.2300000,6.9510000,0.000000,0,0,0
8.540,-0.6065000,-0.4217000,9.8120000,57.4417000,63.6444000,35.8963000,-36.8220000,17.4080000,7.2190000,0.000000,0,0,0
8.550,-0.6639000,-0.5712000,9.9663000,55.4276000,63.9420000,37.3077000,-36.5320000,17.6270000,7.0080000,0.000000,0,0,0
8.560,-0.6532000,-0.5318000,10.0931000,54.0466000,64.3387000,37.7350000,-36.5700000,17.8270000,6.9620000,0.000000,0,0,0
8.570,-0.6245000,-0.3906000,10.1062000,54.6875000,63.5529000,36.4761000,-36.3460000,17.4750000,6.6650000,0.000000,0,0,0
8.580,-0.6316000,-0.2434000,9.9842000,56.8619000,62.2101000,34.4315000,-36.3410000,17.8630000,6.4250000,0.000000,0,0,0
8.590,-0.6352000,-0.0879000,9.7809000,59.3719000,61.4243000,32.7835000,-36.0790000,17.6790000,6.9080000,0.000000,0,0,0
8.600,-0.6257000,0.0640000,9.5739000,61.2640000,61.3937000,32.0282000,-36.2660000,17.8790000,6.6470000,0.000000,0,0,0
8.610,-0.6137000,0.1812000,9.4196000,61.9583000,62.0728000,32.3181000,-35.9490000,17.8320000,6.3620000,0.000000,0,0,0
8.620,-0.6041000,0.2375000,9.3454000,61.4014000,63.0646000,33.7296000,-35.8610000,18.1650000,5.7970000,0.000000,0,0,0
8.630,-0.6041000,0.2399000,9.3526000,60.0967000,63.8123000,36.2396000,-35.6160000,18.0930000,6.6590000,0.000000,0,0,0
8.640,-0.5934000,0.2064000,9.4172000,58.8684000,63.9648000,39.3295000,-35.7450000,18.3530000,6.4040000,0.000000,0,0,0
8.650,-0.5742000,0.1238000,9.5021000,57.9681000,63.4232000,42.2821000,-35.8400000,17.8550000,6.8050000,0.000000,0,0,0
8.660,-0.5563000,0.0209000,9.5930000,57.3959000,62.6678000,44.5099000,-35.6020000,18.0790000,6.2410000,0.000000,0,0,0
8.670,-0.5312000,-0.0461000,9.6648000,57.4112000,61.6913000,45.7077000,-35.3540000,18.3940000,6.1300000,0.000000,0,0,0
8.680,-0.5024000,-0.0843000,9.6828000,58.1207000,60.3409000,45.9366000,-35.3330000,18.4650000,6.2970000,0.000000,0,0,0
8.690,-0.4725000,-0.1059000,9.6337000,59.1583000,59.1812000,45.5704000,-35.3140000,18.6770000,6.3350000,0.000000,0,0,0
8.700,-0.4390000,-0.1083000,9.5488000,59.9670000,59.0973000,45.0134000,-35.0680000,18.9040000,6.6500000,0.000000,0,0,0
8.710,-0.4115000,-0.0999000,9.4686000,60.4248000,60.1196000,44.5404000,-34.8860000,18.8430000,5.7590000,0.000000,0,0,0
8.720,-0.3936000,-0.0987000,9.4280000,60.6689000,61.6989000,44.3420000,-35.1450000,18.9270000,5.8850000,0.000000,0,0,0
8.730,-0.3852000,-0.0999000,9.4292000,60.8063000,63.3087000,44.3497000,-34.7850000,18.7930000,6.4330000,0.000000,0,0,0
8.740,-0.3840000,-0.0939000,9.4567000,60.8444000,64.5065000,44.3878000,-34.7190000,18.6770000,6.1660000,0.000000,0,0,0
8.750,-0.3948000,-0.0927000,9.4926000,60.7300000,65.0787000,44.3802000,-34.7050000,18.6640000,5.5970000,0.000000,0,0,0
8.760,-0.4199000,-0.1178000,9.5213000,60.5087000,64.9796000,44.4031000,-34.7510000,19.1080000,5.7210000,0.000000,0,0,0
8.770,-0.4438000,-0.1645000,9.5440000,60.4019000,64.3692000,44.5251000,-34.5350000,18.9770000,5.8680000,0.000000,0,0,0
8.780,-0.4546000,-0.2016000,9.5619000,60.5698000,63.4918000,44.6548000,-34.4010000,19.0260000,5.6330000,0.000000,0,0,0
8.790,-0.4522000,-0.2099000,9.5775000,60.9055000,62.5076000,44.5633000,-34.4660000,19.2780000,5.6260000,0.000000,0,0,0
8.800,-0.4498000,-0.1884000,9.5978000,61.2259000,61.6989000,44.2123000,-34.4350000,19.2680000,5.9770000,0.000000,0,0,0
8.810,-0.4689000,-0.1681000,9.6301000,61.4624000,61.0504000,43.8309000,-34.3640000,19.3450000,5.7450000,0.000000,0,0,0
8.820,-0.4941000,-0.1585000,9.6732000,61.7142000,60.4706000,43.6783000,-34.3160000,19.1620000,5.1090000,0.000000,0,0,0
8.830,-0.5060000,-0.1477000,9.7067000,62.0880000,59.8450000,43.6859000,-34.0700000,19.3730000,5.4280000,0.000000,0,0,0
8.840,-0.5036000,-0.1430000,9.7246000,62.6068000,58.9752000,43.6554000,-34.3130000,19.5250000,5.7410000,0.000000,0,0,0
8.850,-0.4893000,-0.1406000,9.7414000,63.1866000,57.7850000,43.5257000,-33.7880000,19.5480000,4.9480000,0.000000,0,0,0
8.860,-0.4642000,-0.1310000,9.7593000,63.7512000,56.2744000,43.3578000,-33.9680000,19.6050000,5.7030000,0.000000,0,0,0
8.870,-0.4450000,-0.1178000,9.7617000,64.3158000,54.4815000,43.2434000,-33.9190000,19.7280000,5.6830000,0.000000,0,0,0
8.880,-0.4354000,-0.1071000,9.7414000,64.8651000,52.6352000,43.2281000,-33.9300000,19.8520000,5.0490000,0.000000,0,0,0
8.890,-0.4259000,-0.0700000,9.7007000,65.3381000,50.8194000,43.2587000,-33.8850000,19.9410000,5.8070000,0.000000,0,0,0
8.900,-0.4079000,0.0006000,9.6541000,65.4984000,49.2554000,43.3121000,-34.0400000,19.6760000,5.4180000,0.000000,0,0,0
8.910,-0.3804000,0.0736000,9.6206000,65.0482000,48.7061000,43.5333000,-34.1100000,20.0880000,5.5430000,0.000000,0,0,0
8.920,-0.3517000,0.0975000,9.6002000,64.0030000,49.4232000,44.0674000,-33.8540000,20.2160000,5.7760000,0.000000,0,0,0
8.930,-0.3182000,0.0700000,9.5930000,62.7594000,51.1780000,44.7769000,-33.8490000,19.5900000,4.8160000,0.000000,0,0,0
8.940,-0.2775000,0.0353000,9.5906000,61.7218000,53.4592000,45.3033000,-33.7810000,20.1300000,5.2740000,0.000000,0,0,0
8.950,-0.2381000,0.0102000,9.5847000,61.1801000,55.8472000,45.3720000,-34.0520000,20.1540000,5.0040000,0.000000,0,0,0
8.960,-0.2117000,0.0030000,9.5751000,61.2411000,58.0215000,44.9982000,-33.5290000,20.2690000,4.9690000,0.000000,0,0,0
8.970,-0.1926000,0.0221000,9.5643000,61.8668000,59.5474000,44.4412000,-33.4870000,20.4260000,5.3350000,0.000000,0,0,0
8.980,-0.1998000,0.0437000,9.5524000,62.8128000,60.1425000,44.0750000,-33.4430000,20.4210000,5.5140000,0.000000,0,0,0
8.990,-0.2261000,0.0556000,9.5344000,63.4689000,60.3485000,44.0063000,-33.5550000,20.6470000,4.9880000,0.000000,0,0,0
9.000,-0.2369000,0.0867000,9.5225000,63.4003000,60.7452000,44.0750000,-33.3510000,20.5330000,5.1220000,0.000000,0,0,0
9.010,-0.2428000,0.1310000,9.5428000,62.6297000,61.6226000,44.3192000,-33.1310000,20.6330000,4.7750000,0.000000,0,0,0
9.020,-0.2584000,0.1633000,9.5918000,61.5234000,63.0112000,44.8685000,-33.2170000,20.8260000,4.6950000,0.000000,0,0,0
9.030,-0.2728000,0.1884000,9.6552000,60.4553000,64.6210000,45.6009000,-32.7110000,20.7820000,4.7890000,0.000000,0,0,0
9.040,-0.2955000,0.2028000,9.7198000,59.4025000,66.2155000,46.7072000,-33.1750000,20.7180000,4.9920000,0.000000,0,0,0
9.050,-0.3290000,0.1549000,9.7234000,59.0820000,66.0095000,47.5769000,-32.9940000,20.8640000,5.0830000,0.000000,0,0,0
9.060,-0.3649000,0.0592000,9.6983000,58.7006000,65.0406000,48.7213000,-32.6710000,20.6070000,4.9470000,0.000000,0,0,0
9.070,-0.3804000,-0.0532000,9.6768000,57.8766000,64.1327000,49.8886000,-32.8240000,20.7990000,5.5380000,0.000000,0,0,0
9.080,-0.3768000,-0.1430000,9.6828000,56.6177000,63.6826000,50.5829000,-32.8290000,20.7660000,5.8990000,0.000000,0,0,0
9.090,-0.3661000,-0.1824000,9.7151000,55.2292000,63.4613000,50.4913000,-32.8470000,20.6200000,5.6860000,0.000000,0,0,0
9.100,-0.3685000,-0.1753000,9.7450000,53.9932000,63.1714000,49.8199000,-32.5610000,20.9910000,6.4230000,0.000000,0,0,0
9.110,-0.3804000,-0.1334000,9.7533000,53.1006000,62.6144000,49.0723000,-32.6720000,20.9200000,6.4600000,0.000000,0,0,0
9.120,-0.4008000,-0.0807000,9.7306000,52.7420000,61.5921000,48.8129000,-32.7810000,21.0370000,6.0180000,0.000000,0,0,0
9.130,-0.5168000,-0.0939000,9.5093000,52.4750000,59.0744000,49.3851000,-32.5460000,21.4390000,5.6390000,0.000000,0,0,0
9.140,-0.4630000,-0.0496000,9.4112000,51.1169000,58.0139000,50.2625000,-32.4050000,21.3770000,6.1670000,0.000000,0,0,0
9.150,-0.3613000,0.0437000,9.4878000,49.9878000,61.6531000,50.0946000,-32.4640000,21.0590000,6.1640000,0.000000,0,0,0
9.160,-0.2967000,0.0604000,9.5978000,49.9344000,64.6133000,49.0265000,-32.3340000,21.1170000,6.1850000,0.000000,0,0,0
9.170,-0.2488000,0.0102000,9.6684000,50.5981000,66.9479000,47.9355000,-32.1170000,21.2550000,6.1040000,0.000000,0,0,0
9.180,-0.2141000,-0.0173000,9.6708000,51.3458000,68.2831000,47.2565000,-32.1010000,21.3950000,5.4410000,0.000000,0,0,0
9.190,-0.1902000,-0.0257000,9.6493000,52.1088000,68.3746000,47.0047000,-32.1120000,21.3410000,5.5830000,0.000000,0,0,0
9.200,-0.2046000,-0.0604000,9.6361000,52.7649000,67.6727000,47.2260000,-31.8870000,21.2570000,5.8990000,0.000000,0,0,0
9.210,-0.2572000,-0.1238000,9.6433000,53.2150000,66.6809000,47.9507000,-31.9790000,21.2510000,5.9340000,0.000000,0,0,0
9.220,-0.3242000,-0.1860000,9.6624000,53.5889000,65.5518000,48.8586000,-31.7940000,21.1770000,6.3990000,0.000000,0,0,0
9.230,-0.3864000,-0.2291000,9.6816000,54.1458000,64.3997000,49.5224000,-32.0020000,21.4000000,7.0660000,0.000000,0,0,0
9.240,-0.4115000,-0.2327000,9.6971000,55.0156000,63.6597000,49.7818000,-32.0990000,21.4100000,7.0110000,0.000000,0,0,0
9.250,-0.4031000,-0.1992000,9.6983000,56.0455000,63.3087000,49.8581000,-31.6680000,21.6640000,6.3300000,0.000000,0,0,0
9.260,-0.3601000,-0.1370000,9.6875000,57.0679000,63.2553000,50.1022000,-31.7020000,21.5370000,6.1630000,0.000000,0,0,0
9.270,-0.2991000,-0.0807000,9.6636000,57.9071000,63.2553000,50.7507000,-31.5750000,21.3700000,6.2260000,0.000000,0,0,0
9.280,-0.2393000,-0.0544000,9.6313000,58.5098000,63.0341000,51.8112000,-31.5110000,21.5420000,6.7480000,0.000000,0,0,0
9.290,-0.1962000,-0.0664000,9.5918000,58.7921000,62.7060000,52.9785000,-31.5450000,21.4790000,6.6910000,0.000000,0,0,0
9.300,-0.1830000,-0.1035000,9.5560000,58.7158000,62.6373000,53.8025000,-31.1990000,21.7680000,6.7040000,0.000000,0,0,0
9.310,-0.1998000,-0.1442000,9.5488000,58.4488000,63.0646000,53.9398000,-31.4280000,21.6980000,6.7770000,0.000000,0,0,0
9.320,-0.2417000,-0.1848000,9.5823000,58.2886000,63.7665000,53.4363000,-30.9490000,21.8330000,6.5000000,0.000000,0,0,0
9.330,-0.2787000,-0.2052000,9.6361000,58.3801000,64.4913000,52.4597000,-31.0100000,21.6570000,6.1030000,0.000000,0,0,0
9.340,-0.2979000,-0.2064000,9.6780000,58.6548000,65.0253000,51.1551000,-31.0930000,21.6300000,4.6960000,0.000000,0,0,0
9.350,-0.2991000,-0.2052000,9.6864000,58.9676000,65.1321000,49.7589000,-31.0870000,21.7670000,5.5660000,0.000000,0,0,0
9.360,-0.3003000,-0.2111000,9.6648000,59.2575000,64.7888000,48.5306000,-30.9400000,21.9850000,6.1520000,0.000000,0,0,0
9.370,-0.3098000,-0.2135000,9.6421000,59.5627000,64.0945000,47.7142000,-30.6520000,22.0240000,6.1170000,0.000000,0,0,0
9.380,-0.3266000,-0.1980000,9.6385000,59.9136000,63.2782000,47.3557000,-30.7580000,21.8820000,5.7700000,0.000000,0,0,0
9.390,-0.3529000,-0.1729000,9.6588000,60.1730000,62.5381000,47.3022000,-30.5210000,21.8670000,6.1600000,0.000000,0,0,0
9.400,-0.3828000,-0.1442000,9.7007000,60.3027000,62.0422000,47.4091000,-30.8140000,22.1130000,6.7370000,0.000000,0,0,0
9.410,-0.4139000,-0.1226000,9.7390000,60.4858000,61.4243000,47.6990000,-30.4400000,22.4310000,5.9900000,0.000000,0,0,0
9.420,-0.4366000,-0.0987000,9.7498000,60.8215000,60.3714000,48.2635000,-30.6010000,22.2740000,6.0630000,0.000000,0,0,0
9.430,-0.4307000,-0.0580000,9.7342000,61.2183000,59.1049000,49.0646000,-30.6100000,22.3180000,6.4490000,0.000000,0,0,0
9.440,-0.4055000,-0.0161000,9.7007000,61.4700000,57.8690000,50.1328000,-30.2160000,22.2370000,5.9200000,0.000000,0,0,0
9.450,-0.3685000,0.0066000,9.6624000,61.4166000,57.0145000,51.3687000,-30.3770000,22.0900000,5.9310000,0.000000,0,0,0
9.460,-0.3409000,-0.0114000,9.6206000,60.9818000,56.8924000,52.5818000,-30.4680000,22.2380000,5.9250000,0.000000,0,0,0
9.470,-0.3242000,-0.0508000,9.5918000,60.3180000,57.4875000,53.4744000,-30.2640000,22.4690000,7.2750000,0.000000,0,0,0
9.480,-0.3146000,-0.0855000,9.5835000,59.7992000,58.5098000,53.9017000,-30.5000000,22.6590000,6.5350000,0.000000,0,0,0
9.490,-0.3122000,-0.0999000,9.5847000,59.6466000,59.5703000,54.0009000,-30.3530000,22.1630000,6.4510000,0.000000,0,0,0
9.500,-0.3027000,-0.0796000,9.5990000,59.7305000,60.5011000,54.0314000,-30.3150000,22.4560000,5.9330000,0.000000,0,0,0
9.510,-0.2931000,-0.0341000,9.6206000,59.7153000,61.2488000,54.1763000,-30.0190000,22.6530000,6.0300000,0.000000,0,0,0
9.520,-0.2859000,-0.0030000,9.6385000,59.4330000,61.7065000,54.6112000,-30.1710000,22.4410000,5.9950000,0.000000,0,0,0
9.530,-0.2751000,0.0042000,9.6445000,59.0210000,61.9431000,55.3436000,-29.7110000,22.2850000,6.2430000,0.000000,0,0,0
9.540,-0.2692000,-0.0209000,9.6349000,58.6166000,62.1719000,56.1905000,-29.7060000,22.7710000,6.4210000,0.000000,0,0,0
9.550,-0.2632000,-0.0640000,9.6241000,58.2733000,62.6450000,56.9077000,-30.0420000,22.5750000,6.4220000,0.000000,0,0,0
9.560,-0.2464000,-0.0915000,9.6194000,58.0826000,63.4613000,57.3425000,-29.9130000,23.0330000,6.8160000,0.000000,0,0,0
9.570,-0.2153000,-0.0975000,9.6170000,57.9910000,64.5447000,57.4036000,-30.0570000,22.9370000,5.9970000,0.000000,0,0,0
9.580,-0.1902000,-0.0951000,9.6038000,57.8995000,65.6891000,57.2510000,-29.8070000,22.6490000,6.8020000,0.000000,0,0,0
9.590,-0.1782000,-0.0939000,9.5942000,57.7698000,66.6122000,57.1594000,-29.4980000,22.4280000,6.4720000,0.000000,0,0,0
9.600,-0.1699000,-0.0939000,9.6002000,57.7545000,67.1768000,57.3196000,-29.6010000,22.7270000,6.3410000,0.000000,0,0,0
9.610,-0.1675000,-0.1047000,9.6170000,57.9529000,67.2913000,57.7545000,-29.4710000,22.4750000,7.1020000,0.000000,0,0,0
9.620,-0.1747000,-0.1238000,9.6361000,58.2962000,67.0166000,58.3725000,-29.7510000,22.5830000,6.6120000,0.000000,0,0,0
9.630,-0.1986000,-0.1489000,9.6457000,58.7158000,66.4597000,59.0439000,-29.7320000,22.3430000,6.1860000,0.000000,0,0,0
9.640,-0.2440000,-0.1788000,9.6445000,59.2880000,65.7730000,59.7076000,-29.5410000,22.4620000,6.8920000,0.000000,0,0,0
9.650,-0.2991000,-0.1788000,9.6421000,60.5240000,64.9948000,60.4858000,-29.6140000,22.3240000,6.5060000,0.000000,0,0,0
9.660,-0.3158000,-0.1501000,9.6445000,61.3251000,64.8041000,60.7376000,-29.7570000,22.7340000,6.5520000,0.000000,0,0,0
9.670,-0.3206000,-0.1130000,9.6552000,61.8820000,64.7964000,60.9665000,-29.5650000,22.6680000,6.3660000,0.000000,0,0,0
9.680,-0.3182000,-0.0736000,9.6636000,62.1796000,64.7583000,61.3708000,-29.5880000,22.6670000,6.9500000,0.000000,0,0,0
9.690,-0.3158000,-0.0461000,9.6624000,62.3245000,64.5599000,62.1109000,-29.3940000,22.3940000,6.2670000,0.000000,0,0,0
9.700,-0.3158000,-0.0401000,9.6517000,62.4695000,64.1785000,63.2248000,-29.4430000,22.6200000,6.9750000,0.000000,0,0,0
9.710,-0.3182000,-0.0449000,9.6349000,62.6297000,63.8275000,64.5523000,-29.1140000,22.6330000,7.3050000,0.000000,0,0,0
9.720,-0.3218000,-0.0568000,9.6206000,62.6831000,63.8199000,65.8035000,-29.1990000,22.4980000,7.1360000,0.000000,0,0,0
9.730,-0.3242000,-0.0664000,9.6182000,62.4619000,64.3768000,66.6809000,-29.4920000,22.7780000,6.6430000,0.000000,0,0,0
9.740,-0.3242000,-0.0772000,9.6277000,61.9583000,65.3687000,67.0776000,-29.7620000,22.5010000,6.7190000,0.000000,0,0,0
9.750,-0.3206000,-0.0819000,9.6505000,61.3556000,66.4825000,67.0395000,-29.4270000,22.9010000,6.3530000,0.000000,0,0,0
9.760,-0.3194000,-0.0784000,9.6768000,60.8444000,67.2302000,66.7572000,-29.5170000,22.5880000,6.4270000,0.000000,0,0,0
9.770,-0.3194000,-0.0652000,9.6971000,60.5927000,67.3218000,66.5512000,-29.4770000,22.7070000,7.1750000,0.000000,0,0,0
9.780,-0.3254000,-0.0473000,9.6995000,60.5927000,66.7648000,66.6199000,-29.4530000,22.8770000,6.6630000,0.000000,0,0,0
9.790,-0.3445000,-0.0484000,9.6864000,60.7605000,65.7578000,67.0853000,-29.4090000,22.8210000,6.5340000,0.000000,0,0,0
9.800,-0.3756000,-0.0772000,9.6708000,60.9818000,64.6362000,67.8253000,-29.5920000,22.8600000,6.6510000,0.000000,0,0,0
9.810,-0.4020000,-0.1071000,9.6600000,61.1343000,63.8275000,68.5043000,-29.3740000,22.8040000,6.6710000,0.000000,0,0,0
9.820,-0.4187000,-0.1190000,9.6493000,61.1115000,63.5757000,68.8553000,-29.7270000,22.5560000,6.8780000,0.000000,0,0,0
9.830,-0.4175000,-0.1119000,9.6361000,60.8902000,63.9725000,68.8324000,-29.4040000,22.6500000,6.2120000,0.000000,0,0,0
9.840,-0.3984000,-0.0891000,9.6301000,60.5240000,64.9109000,68.5577000,-29.5150000,22.5260000,6.0960000,0.000000,0,0,0
9.850,-0.3732000,-0.0652000,9.6301000,60.1501000,65.9943000,68.2526000,-29.3970000,22.4550000,5.9270000,0.000000,0,0,0
9.860,-0.3553000,-0.0568000,9.6361000,59.9136000,66.7801000,68.1229000,-29.5690000,22.6580000,6.1250000,0.000000,0,0,0
9.870,-0.3577000,-0.0712000,9.6385000,59.8602000,67.0013000,68.2907000,-29.5560000,22.5760000,6.6300000,0.000000,0,0,0
9.880,-0.3708000,-0.1023000,9.6421000,59.9899000,66.7267000,68.6569000,-29.9190000,22.7660000,6.2380000,0.000000,0,0,0
9.890,-0.3876000,-0.1274000,9.6469000,60.2951000,66.2384000,68.9926000,-29.5190000,22.6500000,6.3300000,0.000000,0,0,0
9.900,-0.4079000,-0.1406000,9.6481000,60.6842000,65.7120000,69.1223000,-29.5970000,22.6020000,5.7150000,0.000000,0,0,0
9.910,-0.4283000,-0.1442000,9.6481000,61.0504000,65.3076000,69.0308000,-29.6260000,22.7500000,5.6770000,0.000000,0,0,0
9.920,-0.4378000,-0.1370000,9.6517000,61.2869000,65.1779000,68.7408000,-29.4760000,22.5140000,5.4560000,0.000000,0,0,0
9.930,-0.4331000,-0.1166000,9.6600000,61.3937000,65.2313000,68.3136000,-29.5200000,22.5260000,5.5590000,0.000000,0,0,0
9.940,-0.4163000,-0.0855000,9.6684000,61.4395000,65.3229000,67.8329000,-29.7640000,22.7070000,6.0250000,0.000000,0,0,0
9.950,-0.3972000,-0.0568000,9.6696000,61.4471000,65.3458000,67.4438000,-29.6480000,22.7010000,6.1960000,0.000000,0,0,0
9.960,-0.3864000,-0.0401000,9.6624000,61.3937000,65.2466000,67.2607000,-29.4550000,22.4120000,6.1610000,0.000000,0,0,0
9.970,-0.3960000,-0.0568000,9.6529000,61.2946000,64.9796000,67.2836000,-29.5180000,22.8310000,5.7930000,0.000000,0,0,0
9.980,-0.4211000,-0.0975000,9.6588000,61.2106000,64.5752000,67.3904000,-29.5380000,22.6240000,6.0100000,0.000000,0,0,0
9.990,-0.4534000,-0.1274000,9.6768000,61.2335000,64.1327000,67.4057000,-29.4550000,22.6940000,5.7060000,0.000000,0,0,0
10.000,-0.4821000,-0.1358000,9.6852000,61.2869000,63.8275000,67.1921000,-29.4240000,22.7840000,6.0360000,0.000000,0,0,0
10.010,-0.4989000,-0.1238000,9.6744000,61.2183000,63.8809000,66.8106000,-29.7060000,22.8860000,6.4290000,0.000000,0,0,0
10.020,-0.4941000,-0.0975000,9.6541000,61.0504000,64.3005000,66.3605000,-29.8880000,22.7330000,6.0710000,0.000000,0,0,0
10.030,-0.4725000,-0.0700000,9.6385000,60.8444000,64.9948000,65.9409000,-28.9430000,22.7250000,6.4510000,0.000000,0,0,0
10.040,-0.4450000,-0.0604000,9.6253000,60.6461000,65.7578000,65.6204000,-29.2190000,22.6440000,5.7970000,0.000000,0,0,0
10.050,-0.4259000,-0.0760000,9.6158000,60.5545000,66.3147000,65.4602000,-29.6370000,22.8560000,5.8890000,0.000000,0,0,0
10.060,-0.4187000,-0.1035000,9.6158000,60.7224000,66.5054000,65.4526000,-29.4350000,22.6910000,5.6100000,0.000000,0,0,0
10.070,-0.4199000,-0.1154000,9.6253000,61.1343000,66.3986000,65.4907000,-29.0730000,22.5520000,6.0070000,0.000000,0,0,0
10.080,-0.4223000,-0.1023000,9.6385000,61.6074000,66.2460000,65.5060000,-29.4760000,22.9100000,5.7920000,0.000000,0,0,0
10.090,-0.4295000,-0.0724000,9.6445000,61.9431000,66.2308000,65.4678000,-29.3530000,22.5800000,5.6990000,0.000000,0,0,0
10.100,-0.4426000,-0.0520000,9.6409000,62.0956000,66.3910000,65.4373000,-29.3210000,22.8650000,6.0170000,0.000000,0,0,0
10.110,-0.4606000,-0.0508000,9.6313000,62.2101000,66.6885000,65.5136000,-29.1590000,22.6220000,5.2590000,0.000000,0,0,0
10.120,-0.4821000,-0.0652000,9.6206000,62.4161000,67.0090000,65.7120000,-29.2450000,22.9180000,5.6570000,0.000000,0,0,0
10.130,-0.5072000,-0.0891000,9.6134000,62.7213000,67.2607000,66.0019000,-29.4410000,22.7580000,5.9500000,0.000000,0,0,0
10.140,-0.5359000,-0.1130000,9.6182000,63.0417000,67.4362000,66.2460000,-29.6040000,22.7000000,5.4200000,0.000000,0,0,0
10.150,-0.5539000,-0.1107000,9.6421000,63.3011000,67.5659000,66.2537000,-29.2620000,22.7580000,5.8620000,0.000000,0,0,0
10.160,-0.5575000,-0.0760000,9.6744000,63.3926000,67.5812000,65.9485000,-29.3540000,22.9670000,5.6070000,0.000000,0,0,0
10.170,-0.5515000,-0.0245000,9.7007000,63.1866000,67.4820000,65.4831000,-29.3400000,22.9170000,5.6560000,0.000000,0,0,0
10.180,-0.5395000,0.0365000,9.7163000,62.6984000,67.2302000,65.0711000,-29.1020000,22.8460000,5.9650000,0.000000,0,0,0
10.190,-0.5300000,0.0831000,9.7187000,62.0728000,66.7648000,64.8346000,-29.1520000,23.0910000,5.3480000,0.000000,0,0,0
10.200,-0.5347000,0.0963000,9.7127000,61.4700000,66.1011000,64.8422000,-29.2800000,23.1220000,5.6830000,0.000000,0,0,0
10.210,-0.5563000,0.0796000,9.7079000,61.0275000,65.2466000,65.0787000,-29.0180000,22.6770000,5.8130000,0.000000,0,0,0
10.220,-0.5922000,0.0508000,9.7055000,60.7834000,64.3005000,65.4831000,-29.2710000,22.6530000,5.9000000,0.000000,0,0,0
10.230,-0.6281000,0.0257000,9.7067000,60.5927000,63.4155000,65.9180000,-29.1850000,22.5900000,5.7560000,0.000000,0,0,0
10.240,-0.6556000,0.0161000,9.7103000,60.3333000,62.7823000,66.2918000,-29.0090000,23.1400000,6.2880000,0.000000,0,0,0
10.250,-0.6675000,0.0161000,9.7139000,59.9976000,62.4161000,66.5741000,-28.8880000,23.0830000,6.0320000,0.000000,0,0,0
10.260,-0.6651000,0.0126000,9.7067000,59.6313000,62.1872000,66.8411000,-29.1870000,22.8260000,5.5820000,0.000000,0,0,0
10.270,-0.6388000,0.0018000,9.6852000,59.2346000,62.0041000,67.2455000,-29.2410000,22.7630000,5.7830000,0.000000,0,0,0
10.280,-0.6173000,-0.0066000,9.6732000,59.1736000,61.8515000,67.4820000,-29.3710000,23.0230000,5.6870000,0.000000,0,0,0
10.290,-0.6029000,-0.0197000,9.6648000,59.2117000,61.6837000,67.6956000,-29.2250000,22.9520000,5.7490000,0.000000,0,0,0
10.300,-0.5981000,-0.0317000,9.6648000,59.2575000,61.5540000,67.8940000,-29.0690000,23.1240000,5.9500000,0.000000,0,0,0
10.310,-0.5898000,-0.0401000,9.6696000,59.2499000,61.5387000,67.9779000,-28.9990000,23.0140000,6.4090000,0.000000,0,0,0
10.320,-0.5742000,-0.0473000,9.6720000,59.1431000,61.6608000,67.8635000,-29.2920000,22.8850000,6.5550000,0.000000,0,0,0
10.330,-0.5527000,-0.0580000,9.6696000,58.9905000,61.8591000,67.5507000,-29.3600000,22.8670000,6.8150000,0.000000,0,0,0
10.340,-0.5252000,-0.0664000,9.6624000,58.8760000,62.0422000,67.1082000,-29.1460000,22.9020000,6.2690000,0.000000,0,0,0
10.350,-0.5024000,-0.0736000,9.6493000,58.8608000,62.0956000,66.6351000,-29.3550000,22.7650000,6.1650000,0.000000,0,0,0
10.360,-0.4881000,-0.0712000,9.6325000,58.9981000,62.0728000,66.2918000,-29.1410000,22.6490000,6.4680000,0.000000,0,0,0
10.370,-0.4905000,-0.0676000,9.6158000,59.3185000,62.0575000,66.1926000,-29.0680000,22.6730000,6.7520000,0.000000,0,0,0
10.380,-0.4977000,-0.0604000,9.6050000,59.7763000,62.2177000,66.3223000,-29.3270000,22.5620000,6.1080000,0.000000,0,0,0
10.390,-0.5024000,-0.0520000,9.5990000,60.2951000,62.6602000,66.5207000,-29.2200000,22.6920000,6.0460000,0.000000,0,0,0
10.400,-0.5048000,-0.0568000,9.5942000,60.6766000,63.4613000,66.6504000,-29.3290000,22.7130000,5.9610000,0.000000,0,0,0
10.410,-0.5120000,-0.0736000,9.5990000,60.8215000,64.4989000,66.6199000,-29.1210000,22.7260000,5.7890000,0.000000,0,0,0
10.420,-0.5228000,-0.0891000,9.6253000,60.8826000,65.4907000,66.4139000,-29.4590000,23.0700000,6.0870000,0.000000,0,0,0
10.430,-0.5371000,-0.0975000,9.6624000,61.0275000,66.0400000,66.1163000,-29.2420000,22.8640000,6.1740000,0.000000,0,0,0
10.440,-0.5503000,-0.0891000,9.6899000,61.3022000,65.9485000,65.9332000,-29.1980000,22.8660000,6.2330000,0.000000,0,0,0
10.450,-0.5623000,-0.0700000,9.6971000,61.6074000,65.3076000,65.9790000,-29.1600000,22.6870000,5.8800000,0.000000,0,0,0
10.460,-0.5706000,-0.0449000,9.6947000,61.8820000,64.4302000,66.2613000,-29.1900000,23.0470000,6.0880000,0.000000,0,0,0
10.470,-0.5730000,-0.0209000,9.6852000,62.0651000,63.6444000,66.6504000,-29.0200000,22.6480000,6.0750000,0.000000,0,0,0
10.480,-0.5706000,-0.0054000,9.6684000,62.0270000,63.2172000,66.9785000,-29.2770000,22.4840000,5.8810000,0.000000,0,0,0
10.490,-0.5670000,-0.0006000,9.6493000,61.7142000,63.2858000,67.1082000,-29.1260000,22.8660000,5.6780000,0.000000,0,0,0
10.500,-0.5623000,0.0054000,9.6457000,61.2564000,63.7207000,66.9708000,-29.1310000,22.6290000,6.1370000,0.000000,0,0,0
10.510,-0.5611000,0.0126000,9.6552000,60.7910000,64.1937000,66.6504000,-29.3090000,22.8310000,5.6850000,0.000000,0,0,0
10.520,-0.5646000,0.0221000,9.6696000,60.3790000,64.4531000,66.3223000,-29.2880000,23.3010000,6.0900000,0.000000,0,0,0
10.530,-0.5754000,0.0365000,9.6828000,59.9518000,64.4150000,66.1011000,-29.4890000,22.6600000,6.7850000,0.000000,0,0,0
10.540,-0.5946000,0.0484000,9.6983000,59.4788000,64.0564000,66.0324000,-29.5910000,22.5490000,6.8410000,0.000000,0,0,0
10.550,-0.6221000,0.0473000,9.7151000,58.9218000,63.4689000,66.0858000,-29.5740000,22.6010000,6.5460000,0.000000,0,0,0
10.560,-0.6556000,0.0281000,9.7294000,58.3344000,62.7213000,66.2231000,-29.6650000,22.7270000,6.2430000,0.000000,0,0,0
10.570,-0.6795000,0.0018000,9.7438000,57.8308000,61.8744000,66.3376000,-29.5270000,22.7500000,6.4640000,0.000000,0,0,0
10.580,-0.6867000,-0.0233000,9.7521000,57.5485000,60.9207000,66.3452000,-29.8000000,22.6410000,6.6530000,0.000000,0,0,0
10.590,-0.6771000,-0.0449000,9.7426000,57.4417000,59.9823000,66.2689000,-29.2630000,22.5970000,6.2260000,0.000000,0,0,0
10.600,-0.6520000,-0.0652000,9.7163000,57.4265000,59.2194000,66.1392000,-29.3100000,22.6510000,6.1200000,0.000000,0,0,0
10.610,-0.6185000,-0.0760000,9.6828000,57.4646000,58.7692000,66.0172000,-29.3700000,22.9350000,5.9660000,0.000000,0,0,0
10.620,-0.5874000,-0.0748000,9.6493000,57.5867000,58.6166000,66.0095000,-29.1030000,22.7440000,6.1750000,0.000000,0,0,0
10.630,-0.5623000,-0.0712000,9.6253000,57.7774000,58.7387000,66.2231000,-28.9380000,22.8140000,6.9240000,0.000000,0,0,0
10.640,-0.5431000,-0.0712000,9.6110000,58.0215000,59.0668000,66.6656000,-29.1510000,22.8410000,6.3770000,0.000000,0,0,0
10.650,-0.5300000,-0.0772000,9.6062000,58.2886000,59.5398000,67.2455000,-29.1230000,22.6670000,6.4500000,0.000000,0,0,0
10.660,-0.5240000,-0.0879000,9.6014000,58.5632000,60.0891000,67.8177000,-29.2120000,22.3270000,6.8420000,0.000000,0,0,0
10.670,-0.5192000,-0.1047000,9.5966000,58.8379000,60.6918000,68.2831000,-28.9660000,22.6020000,6.6010000,0.000000,0,0,0
10.680,-0.5132000,-0.1190000,9.5990000,59.1354000,61.3098000,68.5577000,-29.1960000,22.5510000,6.4240000,0.000000,0,0,0
10.690,-0.5060000,-0.1274000,9.6062000,59.4711000,61.8515000,68.6722000,-29.5390000,22.8090000,6.3170000,0.000000,0,0,0
10.700,-0.4929000,-0.1214000,9.6182000,59.7687000,62.3016000,68.6264000,-29.3610000,22.9010000,6.3030000,0.000000,0,0,0
10.710,-0.4677000,-0.1035000,9.6361000,59.9823000,62.6450000,68.4814000,-29.1800000,22.9410000,6.3730000,0.000000,0,0,0
10.720,-0.4486000,-0.0855000,9.6517000,60.0967000,62.8128000,68.2907000,-29.3860000,22.9630000,6.0500000,0.000000,0,0,0
10.730,-0.4426000,-0.0807000,9.6600000,60.1044000,62.8204000,68.1763000,-29.1790000,22.8700000,5.6390000,0.000000,0,0,0
10.740,-0.4426000,-0.0867000,9.6624000,60.0357000,62.7365000,68.1076000,-29.2450000,23.0060000,6.0050000,0.000000,0,0,0
10.750,-0.4414000,-0.0891000,9.6660000,60.0128000,62.6221000,67.9855000,-29.2970000,22.6710000,5.9090000,0.000000,0,0,0
10.760,-0.4402000,-0.0879000,9.6660000,60.0357000,62.5076000,67.7872000,-29.2840000,22.8740000,5.9020000,0.000000,0,0,0
10.770,-0.4438000,-0.0867000,9.6612000,60.0357000,62.4466000,67.5735000,-29.2550000,22.4610000,6.2990000,0.000000,0,0,0
10.780,-0.4510000,-0.0855000,9.6576000,60.0052000,62.4542000,67.3752000,-29.2280000,22.8430000,5.9660000,0.000000,0,0,0
10.790,-0.4642000,-0.0891000,9.6552000,60.0204000,62.4390000,67.2150000,-29.3590000,22.6090000,6.1050000,0.000000,0,0,0
10.800,-0.4821000,-0.0999000,9.6552000,60.0891000,62.3703000,67.1387000,-29.2290000,22.4740000,6.5230000,0.000000,0,0,0
10.810,-0.4953000,-0.1130000,9.6517000,60.2341000,62.3322000,67.1387000,-29.1930000,22.4870000,6.4410000,0.000000,0,0,0
10.820,-0.5000000,-0.1238000,9.6445000,60.4172000,62.3703000,67.1310000,-29.1480000,22.5420000,6.8240000,0.000000,0,0,0
