time  , accel_x   , accel_y   , accel_z   , gyro_x    , gyro_y     , gyro_z      , mag_x      , mag_y      , mag_z     , baro    , gps_lat, gps_lon, gps_alt
 0.780, -0.0042000, 0.0054000 ,  9.6792000, 35.1791000, 34.7672000 , 34.3628000  , -39.6730000, -7.9960000 ,  8.4710000, 0.000000,       0,       0,       0
 0.790, -0.0042000, 0.0066000 ,  9.6792000, 35.1791000, 34.7595000 , 34.3704000  , -39.5850000, -7.4340000 ,  8.2320000, 0.000000,       0,       0,       0
 0.800, -0.0042000, 0.0066000 ,  9.6792000, 35.1791000, 34.7595000 , 34.3704000  , -39.5850000, -7.4340000 ,  8.2320000, 0.000000,       0,       0,       0
 0.810, -0.0042000, 0.0090000 ,  9.6792000, 35.1715000, 34.7595000 , 34.3704000  , -39.5450000, -7.5730000 ,  8.4160000, 0.000000,       0,       0,       0
 0.820, -0.0042000, 0.0102000 ,  9.6792000, 35.1715000, 34.7519000 , 34.3704000  , -39.4610000, -7.7620000 ,  8.3190000, 0.000000,       0,       0,       0
 0.830, -0.0042000, 0.0102000 ,  9.6792000, 35.1639000, 34.7443000 , 34.3628000  , -39.4990000, -8.0010000 ,  8.1400000, 0.000000,       0,       0,       0
 0.840, -0.0042000, 0.0078000 ,  9.6804000, 35.1639000, 34.7519000 , 34.3628000  , -39.6490000, -7.6790000 ,  8.3350000, 0.000000,       0,       0,       0
 0.850, -0.0030000, 0.0066000 ,  9.6804000, 35.1639000, 34.7519000 , 34.3628000  , -39.5490000, -7.7650000 ,  8.4530000, 0.000000,       0,       0,       0
 0.860, -0.0042000, 0.0054000 ,  9.6804000, 35.1639000, 34.7443000 , 34.3628000  , -39.5290000, -7.7300000 ,  7.8270000, 0.000000,       0,       0,       0
 0.870, -0.0042000, 0.0066000 ,  9.6792000, 35.1639000, 34.7366000 , 34.3704000  , -39.6040000, -7.8330000 ,  8.1580000, 0.000000,       0,       0,       0
 0.880, -0.0042000, 0.0078000 ,  9.6792000, 35.1715000, 34.7290000 , 34.3704000  , -39.7750000, -7.8340000 ,  8.6920000, 0.000000,       0,       0,       0
 0.890, -0.0030000, 0.0078000 ,  9.6780000, 35.1715000, 34.7290000 , 34.3628000  , -39.6810000, -7.9760000 ,  8.3590000, 0.000000,       0,       0,       0
 0.900, -0.0030000, 0.0066000 ,  9.6768000, 35.1639000, 34.7366000 , 34.3628000  , -39.7450000, -7.5090000 ,  8.2660000, 0.000000,       0,       0,       0
 0.910, -0.0030000, 0.0078000 ,  9.6768000, 35.1639000, 34.7443000 , 34.3628000  , -39.8880000, -7.6310000 ,  8.7110000, 0.000000,       0,       0,       0
 0.920, -0.0054000, 0.0078000 ,  9.6756000, 35.1639000, 34.7672000 , 34.3628000  , -39.9030000, -8.0180000 ,  8.6910000, 0.000000,       0,       0,       0
 0.930, -0.0066000, 0.0090000 ,  9.6756000, 35.1639000, 34.7824000 , 34.3628000  , -39.9000000, -7.7940000 ,  8.5910000, 0.000000,       0,       0,       0
 0.940, -0.0066000, 0.0090000 ,  9.6756000, 35.1562000, 34.7900000 , 34.3704000  , -39.8180000, -7.8900000 ,  8.9240000, 0.000000,       0,       0,       0
 0.950, -0.0066000, 0.0102000 ,  9.6768000, 35.1486000, 34.7977000 , 34.3704000  , -39.7180000, -7.7120000 ,  9.0050000, 0.000000,       0,       0,       0
 0.960, -0.0042000, 0.0102000 ,  9.6780000, 35.1410000, 34.7977000 , 34.3781000  , -39.8660000, -7.9390000 ,  8.9420000, 0.000000,       0,       0,       0
 0.970, -0.0006000, 0.0102000 ,  9.6816000, 35.1410000, 34.7900000 , 34.3781000  , -39.7670000, -7.9480000 ,  8.8330000, 0.000000,       0,       0,       0
 0.980, -0.0006000, 0.0114000 ,  9.6828000, 35.1486000, 34.7824000 , 34.3781000  , -39.5780000, -7.6360000 ,  8.4570000, 0.000000,       0,       0,       0
 0.990, 0.0006000 , 0.0126000 ,  9.6816000, 35.1486000, 34.7748000 , 34.3781000  , -39.6010000, -7.8400000 ,  8.2960000, 0.000000,       0,       0,       0
 1.000, -0.0006000, 0.0126000 ,  9.6804000, 35.1562000, 34.7672000 , 34.3704000  , -39.9040000, -7.6530000 ,  8.3470000, 0.000000,       0,       0,       0
 1.010, 0.0006000 , 0.0114000 ,  9.6792000, 35.1562000, 34.7595000 , 34.3628000  , -39.7250000, -8.0350000 ,  8.7840000, 0.000000,       0,       0,       0
 1.020, 0.0018000 , 0.0090000 ,  9.6792000, 35.1562000, 34.7748000 , 34.3628000  , -39.8810000, -7.7530000 ,  8.6350000, 0.000000,       0,       0,       0
 1.030, 0.0018000 , 0.0066000 ,  9.6792000, 35.1562000, 34.7824000 , 34.3552000  , -39.7810000, -8.1350000 ,  7.9550000, 0.000000,       0,       0,       0
 1.040, 0.0018000 , 0.0042000 ,  9.6780000, 35.1562000, 34.7977000 , 34.3552000  , -39.7280000, -8.0450000 ,  8.2810000, 0.000000,       0,       0,       0
 1.050, 0.0006000 , 0.0042000 ,  9.6768000, 35.1486000, 34.8053000 , 34.3552000  , -39.7640000, -8.0380000 ,  7.5430000, 0.000000,       0,       0,       0
 1.060, -0.0006000, 0.0066000 ,  9.6768000, 35.1486000, 34.7977000 , 34.3628000  , -39.4920000, -7.9300000 ,  8.0000000, 0.000000,       0,       0,       0
 1.070, -0.0006000, 0.0078000 ,  9.6780000, 35.1410000, 34.7824000 , 34.3704000  , -39.7480000, -8.2170000 ,  8.4380000, 0.000000,       0,       0,       0
 1.080, 0.0006000 , 0.0090000 ,  9.6792000, 35.1410000, 34.7672000 , 34.3704000  , -39.5980000, -7.9720000 ,  8.3300000, 0.000000,       0,       0,       0
 1.090, 0.0006000 , 0.0102000 ,  9.6804000, 35.1410000, 34.7595000 , 34.3704000  , -39.7910000, -7.8920000 ,  8.4120000, 0.000000,       0,       0,       0
 1.100, -0.0006000, 0.0102000 ,  9.6804000, 35.1410000, 34.7595000 , 34.3628000  , -39.4410000, -7.9440000 ,  7.8740000, 0.000000,       0,       0,       0
 1.110, -0.0006000, 0.0090000 ,  9.6804000, 35.1486000, 34.7595000 , 34.3628000  , -39.4470000, -7.9650000 ,  8.3530000, 0.000000,       0,       0,       0
 1.120, -0.0018000, 0.0078000 ,  9.6792000, 35.1562000, 34.7595000 , 34.3628000  , -39.1450000, -7.7110000 ,  8.1400000, 0.000000,       0,       0,       0
 1.130, -0.0018000, 0.0066000 ,  9.6780000, 35.1562000, 34.7672000 , 34.3628000  , -39.2950000, -7.9700000 ,  8.2940000, 0.000000,       0,       0,       0
 1.140, -0.0018000, 0.0066000 ,  9.6768000, 35.1562000, 34.7672000 , 34.3704000  , -39.4150000, -8.3200000 ,  7.0720000, 0.000000,       0,       0,       0
 1.150, -0.0018000, 0.0078000 ,  9.6768000, 35.1562000, 34.7672000 , 34.3704000  , -39.5040000, -7.8840000 ,  7.7550000, 0.000000,       0,       0,       0
 1.160, -0.0006000, 0.0078000 ,  9.6768000, 35.1562000, 34.7748000 , 34.3781000  , -39.1210000, -7.7740000 ,  7.7400000, 0.000000,       0,       0,       0
 1.170, -0.0006000, 0.0078000 ,  9.6792000, 35.1562000, 34.7748000 , 34.3781000  , -39.5180000, -8.1280000 ,  7.7530000, 0.000000,       0,       0,       0
 1.180, -0.0006000, 0.0078000 ,  9.6792000, 35.1486000, 34.7748000 , 34.3781000  , -39.4120000, -8.1240000 ,  7.2820000, 0.000000,       0,       0,       0
 1.190, -0.0006000, 0.0078000 ,  9.6792000, 35.1562000, 34.7824000 , 34.3704000  , -39.5750000, -7.7760000 ,  7.4030000, 0.000000,       0,       0,       0
 1.200, -0.0006000, 0.0066000 ,  9.6780000, 35.1639000, 34.7824000 , 34.3704000  , -39.5950000, -8.1350000 ,  7.3050000, 0.000000,       0,       0,       0
 1.210, -0.0006000, 0.0078000 ,  9.6780000, 35.1639000, 34.7900000 , 34.3628000  , -39.4860000, -8.3270000 ,  7.8300000, 0.000000,       0,       0,       0
 1.220, -0.0018000, 0.0102000 ,  9.6768000, 35.1639000, 34.7824000 , 34.3628000  , -39.7810000, -8.3650000 ,  7.2350000, 0.000000,       0,       0,       0
 1.230, -0.0018000, 0.0102000 ,  9.6780000, 35.1562000, 34.7824000 , 34.3704000  , -39.4580000, -8.1700000 ,  7.2490000, 0.000000,       0,       0,       0
 1.240, -0.0018000, 0.0102000 ,  9.6792000, 35.1486000, 34.7748000 , 34.3781000  , -39.6800000, -7.9460000 ,  7.9350000, 0.000000,       0,       0,       0
 1.250, -0.0018000, 0.0114000 ,  9.6792000, 35.1486000, 34.7748000 , 34.3781000  , -39.8150000, -8.2620000 ,  8.1420000, 0.000000,       0,       0,       0
 1.260, -0.0018000, 0.0114000 ,  9.6792000, 35.1562000, 34.7748000 , 34.3781000  , -39.5500000, -7.7810000 ,  7.3310000, 0.000000,       0,       0,       0
 1.270, -0.0042000, 0.0102000 ,  9.6780000, 35.1639000, 34.7824000 , 34.3704000  , -39.7360000, -7.9940000 ,  8.3020000, 0.000000,       0,       0,       0
 1.280, -0.0042000, 0.0090000 ,  9.6780000, 35.1639000, 34.7824000 , 34.3704000  , -39.4320000, -8.0870000 ,  8.1770000, 0.000000,       0,       0,       0
 1.290, -0.0042000, 0.0090000 ,  9.6780000, 35.1639000, 34.7824000 , 34.3628000  , -39.7220000, -7.8170000 ,  7.7370000, 0.000000,       0,       0,       0
 1.300, -0.0042000, 0.0102000 ,  9.6780000, 35.1639000, 34.7748000 , 34.3628000  , -39.4590000, -7.8390000 ,  8.0260000, 0.000000,       0,       0,       0
 1.310, -0.0054000, 0.0090000 ,  9.6780000, 35.1562000, 34.7748000 , 34.3628000  , -39.4820000, -8.1130000 ,  7.2590000, 0.000000,       0,       0,       0
 1.320, -0.0042000, 0.0090000 ,  9.6780000, 35.1562000, 34.7748000 , 34.3628000  , -39.7180000, -8.1780000 ,  7.5150000, 0.000000,       0,       0,       0
 1.330, -0.0030000, 0.0090000 ,  9.6792000, 35.1639000, 34.7824000 , 34.3628000  , -39.6850000, -7.8510000 ,  7.5160000, 0.000000,       0,       0,       0
 1.340, -0.0030000, 0.0090000 ,  9.6792000, 35.1715000, 34.7824000 , 34.3704000  , -39.7470000, -7.7410000 ,  7.6000000, 0.000000,       0,       0,       0
 1.350, -0.0030000, 0.0102000 ,  9.6756000, 35.1868000, 34.7595000 , 34.3781000  , -39.5700000, -7.9950000 ,  7.6260000, 0.000000,       0,       0,       0
 1.360, -0.0018000, 0.0102000 ,  9.6744000, 35.1944000, 34.7443000 , 34.3781000  , -39.4640000, -7.7380000 ,  7.9900000, 0.000000,       0,       0,       0
 1.370, -0.0006000, 0.0102000 ,  9.6756000, 35.1944000, 34.7366000 , 34.3704000  , -39.6100000, -7.7960000 ,  7.7380000, 0.000000,       0,       0,       0
 1.380, -0.0018000, 0.0102000 ,  9.6792000, 35.1944000, 34.7290000 , 34.3628000  , -39.4530000, -7.7680000 ,  7.7410000, 0.000000,       0,       0,       0
 1.390, -0.0030000, 0.0090000 ,  9.6804000, 35.1868000, 34.7290000 , 34.3552000  , -39.4250000, -8.0290000 ,  7.5790000, 0.000000,       0,       0,       0
 1.400, -0.0030000, 0.0078000 ,  9.6804000, 35.1791000, 34.7443000 , 34.3552000  , -39.2280000, -8.0250000 ,  8.1030000, 0.000000,       0,       0,       0
 1.410, -0.0054000, 0.0066000 ,  9.6804000, 35.1639000, 34.7519000 , 34.3552000  , -39.2080000, -7.9830000 ,  7.9360000, 0.000000,       0,       0,       0
 1.420, -0.0054000, 0.0054000 ,  9.6804000, 35.1639000, 34.7595000 , 34.3628000  , -39.5280000, -8.1020000 ,  7.8750000, 0.000000,       0,       0,       0
 1.430, -0.0054000, 0.0054000 ,  9.6780000, 35.1562000, 34.7595000 , 34.3552000  , -39.8370000, -8.1470000 ,  8.5710000, 0.000000,       0,       0,       0
 1.440, -0.0042000, 0.0054000 ,  9.6756000, 35.1639000, 34.7519000 , 34.3552000  , -39.2250000, -7.8920000 ,  7.4760000, 0.000000,       0,       0,       0
 1.450, -0.0042000, 0.0066000 ,  9.6744000, 35.1715000, 34.7595000 , 34.3552000  , -39.7300000, -7.8250000 ,  8.2630000, 0.000000,       0,       0,       0
 1.460, -0.0042000, 0.0090000 ,  9.6744000, 35.1715000, 34.7595000 , 34.3552000  , -39.3090000, -7.9050000 ,  7.7940000, 0.000000,       0,       0,       0
 1.470, -0.0030000, 0.0102000 ,  9.6756000, 35.1715000, 34.7672000 , 34.3628000  , -39.6540000, -8.1150000 ,  7.6680000, 0.000000,       0,       0,       0
 1.480, -0.0030000, 0.0126000 ,  9.6756000, 35.1791000, 34.7748000 , 34.3704000  , -39.5190000, -8.2020000 ,  7.7140000, 0.000000,       0,       0,       0
 1.490, -0.0030000, 0.0126000 ,  9.6768000, 35.1868000, 34.7748000 , 34.3781000  , -39.5830000, -7.8860000 ,  7.9820000, 0.000000,       0,       0,       0
 1.500, -0.0030000, 0.0114000 ,  9.6780000, 35.1868000, 34.7748000 , 34.3781000  , -39.5710000, -8.0530000 ,  7.5370000, 0.000000,       0,       0,       0
 1.510, -0.0030000, 0.0114000 ,  9.6792000, 35.1791000, 34.7672000 , 34.3781000  , -39.7670000, -8.1770000 ,  7.3020000, 0.000000,       0,       0,       0
 1.520, -0.0018000, 0.0114000 ,  9.6780000, 35.1715000, 34.7748000 , 34.3781000  , -39.5000000, -7.7650000 ,  8.6080000, 0.000000,       0,       0,       0
 1.530, -0.0018000, 0.0102000 ,  9.6768000, 35.1486000, 34.7824000 , 34.3781000  , -39.5020000, -8.1640000 ,  7.8440000, 0.000000,       0,       0,       0
 1.540, -0.0018000, 0.0078000 ,  9.6756000, 35.1410000, 34.7977000 , 34.3704000  , -39.7490000, -7.8210000 ,  7.8830000, 0.000000,       0,       0,       0
 1.550, -0.0030000, 0.0066000 ,  9.6744000, 35.1334000, 34.8129000 , 34.3704000  , -39.7260000, -7.8710000 ,  8.4200000, 0.000000,       0,       0,       0
 1.560, -0.0030000, 0.0054000 ,  9.6744000, 35.1334000, 34.8282000 , 34.3781000  , -39.6590000, -7.8610000 ,  7.9380000, 0.000000,       0,       0,       0
 1.570, -0.0030000, 0.0042000 ,  9.6744000, 35.1410000, 34.8358000 , 34.3704000  , -39.9920000, -7.7580000 ,  8.3530000, 0.000000,       0,       0,       0
 1.580, -0.0018000, 0.0042000 ,  9.6756000, 35.1486000, 34.8358000 , 34.3704000  , -39.6640000, -8.0460000 ,  8.3260000, 0.000000,       0,       0,       0
 1.590, -0.0018000, 0.0054000 ,  9.6756000, 35.1562000, 34.8282000 , 34.3704000  , -39.6980000, -7.6970000 ,  8.1940000, 0.000000,       0,       0,       0
 1.600, -0.0030000, 0.0066000 ,  9.6768000, 35.1562000, 34.8129000 , 34.3704000  , -39.8800000, -8.0750000 ,  8.5070000, 0.000000,       0,       0,       0
 1.610, -0.0030000, 0.0078000 ,  9.6768000, 35.1562000, 34.8053000 , 34.3704000  , -39.7650000, -7.9450000 ,  8.4680000, 0.000000,       0,       0,       0
 1.620, -0.0042000, 0.0090000 ,  9.6768000, 35.1562000, 34.7900000 , 34.3781000  , -39.8330000, -7.6170000 ,  7.8230000, 0.000000,       0,       0,       0
 1.630, -0.0030000, 0.0090000 ,  9.6780000, 35.1562000, 34.7748000 , 34.3781000  , -39.8980000, -8.1070000 ,  8.4450000, 0.000000,       0,       0,       0
 1.640, -0.0018000, 0.0078000 ,  9.6780000, 35.1639000, 34.7519000 , 34.3704000  , -39.7040000, -7.9700000 ,  8.1170000, 0.000000,       0,       0,       0
 1.650, -0.0018000, 0.0090000 ,  9.6780000, 35.1715000, 34.7366000 , 34.3704000  , -40.1020000, -7.5930000 ,  7.7960000, 0.000000,       0,       0,       0
 1.660, -0.0018000, 0.0090000 ,  9.6780000, 35.1868000, 34.7214000 , 34.3704000  , -39.7250000, -7.6950000 ,  8.2200000, 0.000000,       0,       0,       0
 1.670, -0.0018000, 0.0066000 ,  9.6780000, 35.1944000, 34.7214000 , 34.3781000  , -39.4280000, -8.1320000 ,  7.8340000, 0.000000,       0,       0,       0
 1.680, -0.0006000, 0.0054000 ,  9.6792000, 35.2020000, 34.7214000 , 34.3781000  , -39.7970000, -7.6750000 ,  8.0730000, 0.000000,       0,       0,       0
 1.690, -0.0006000, 0.0054000 ,  9.6792000, 35.2020000, 34.7290000 , 34.3704000  , -40.0840000, -7.7120000 ,  8.2180000, 0.000000,       0,       0,       0
 1.700, 0.0006000 , 0.0054000 ,  9.6780000, 35.1868000, 34.7443000 , 34.3704000  , -39.7160000, -7.9320000 ,  8.2620000, 0.000000,       0,       0,       0
 1.710, -0.0006000, 0.0066000 ,  9.6792000, 35.1791000, 34.7595000 , 34.3704000  , -40.0170000, -7.7460000 ,  8.4690000, 0.000000,       0,       0,       0
 1.720, -0.0006000, 0.0090000 ,  9.6804000, 35.1639000, 34.7824000 , 34.3781000  , -39.6980000, -7.9790000 ,  8.5040000, 0.000000,       0,       0,       0
 1.730, -0.0006000, 0.0102000 ,  9.6804000, 35.1639000, 34.8053000 , 34.3781000  , -40.0650000, -8.1390000 ,  8.8380000, 0.000000,       0,       0,       0
 1.740, -0.0006000, 0.0114000 ,  9.6792000, 35.1639000, 34.8282000 , 34.3781000  , -39.9720000, -8.1970000 ,  8.4670000, 0.000000,       0,       0,       0
 1.750, -0.0006000, 0.0102000 ,  9.6780000, 35.1715000, 34.8358000 , 34.3781000  , -39.6110000, -8.3150000 ,  8.1640000, 0.000000,       0,       0,       0
 1.760, 0.0006000 , 0.0090000 ,  9.6780000, 35.1791000, 34.8434000 , 34.3781000  , -39.7500000, -7.9000000 ,  7.7240000, 0.000000,       0,       0,       0
 1.770, -0.0006000, 0.0078000 ,  9.6768000, 35.1791000, 34.8511000 , 34.3781000  , -39.8570000, -7.9440000 ,  8.5280000, 0.000000,       0,       0,       0
 1.780, -0.0018000, 0.0078000 ,  9.6768000, 35.1868000, 34.8434000 , 34.3704000  , -39.4170000, -7.9680000 ,  7.7790000, 0.000000,       0,       0,       0
 1.790, -0.0018000, 0.0090000 ,  9.6756000, 35.1944000, 34.8282000 , 34.3704000  , -39.9350000, -8.0810000 ,  7.7590000, 0.000000,       0,       0,       0
 1.800, -0.0018000, 0.0102000 ,  9.6756000, 35.2020000, 34.8282000 , 34.3704000  , -39.5230000, -7.7320000 ,  8.0570000, 0.000000,       0,       0,       0
 1.810, -0.0018000, 0.0102000 ,  9.6780000, 35.2249000, 34.8358000 , 34.3628000  , -39.5670000, -7.9840000 ,  7.9860000, 0.000000,       0,       0,       0
 1.820, 0.0006000 , 0.0078000 ,  9.6792000, 35.2402000, 34.8740000 , 34.3628000  , -39.6590000, -7.8600000 ,  7.2640000, 0.000000,       0,       0,       0
 1.830, 0.0006000 , 0.0066000 ,  9.6828000, 35.2478000, 34.8969000 , 34.3628000  , -39.9030000, -7.7180000 ,  7.6840000, 0.000000,       0,       0,       0
 1.840, 0.0018000 , 0.0054000 ,  9.6840000, 35.2325000, 34.9045000 , 34.3704000  , -39.4170000, -7.9480000 ,  7.6900000, 0.000000,       0,       0,       0
 1.850, -0.0006000, 0.0030000 ,  9.6828000, 35.2097000, 34.9045000 , 34.3704000  , -39.5510000, -7.8890000 ,  7.5130000, 0.000000,       0,       0,       0
 1.860, -0.0018000, 0.0042000 ,  9.6792000, 35.1944000, 34.8816000 , 34.3704000  , -39.6180000, -7.9120000 ,  8.0680000, 0.000000,       0,       0,       0
 1.870, -0.0030000, 0.0066000 ,  9.6768000, 35.1868000, 34.8434000 , 34.3781000  , -39.8470000, -7.7400000 ,  7.6960000, 0.000000,       0,       0,       0
 1.880, -0.0030000, 0.0090000 ,  9.6756000, 35.1868000, 34.8129000 , 34.3781000  , -39.4530000, -7.6900000 ,  7.3210000, 0.000000,       0,       0,       0
 1.890, -0.0030000, 0.0114000 ,  9.6768000, 35.2020000, 34.8053000 , 34.3781000  , -39.7730000, -7.8240000 ,  8.1620000, 0.000000,       0,       0,       0
 1.900, -0.0030000, 0.0126000 ,  9.6768000, 35.2097000, 34.8129000 , 34.3704000  , -39.5480000, -7.7480000 ,  7.5750000, 0.000000,       0,       0,       0
 1.910, -0.0018000, 0.0126000 ,  9.6768000, 35.2097000, 34.8206000 , 34.3704000  , -39.4920000, -7.7650000 ,  8.0970000, 0.000000,       0,       0,       0
 1.920, -0.0030000, 0.0126000 ,  9.6780000, 35.2097000, 34.8282000 , 34.3628000  , -39.4620000, -7.6550000 ,  8.3050000, 0.000000,       0,       0,       0
 1.930, -0.0042000, 0.0114000 ,  9.6792000, 35.2097000, 34.8282000 , 34.3704000  , -39.8010000, -7.6500000 ,  7.8780000, 0.000000,       0,       0,       0
 1.940, -0.0042000, 0.0102000 ,  9.6804000, 35.2020000, 34.8358000 , 34.3704000  , -39.7300000, -7.6800000 ,  8.2190000, 0.000000,       0,       0,       0
 1.950, -0.0042000, 0.0090000 ,  9.6804000, 35.1868000, 34.8434000 , 34.3704000  , -39.7750000, -7.8610000 ,  8.3130000, 0.000000,       0,       0,       0
 1.960, -0.0042000, 0.0078000 ,  9.6804000, 35.1791000, 34.8511000 , 34.3781000  , -39.7380000, -7.9320000 ,  7.7960000, 0.000000,       0,       0,       0
 1.970, -0.0042000, 0.0090000 ,  9.6792000, 35.1868000, 34.8663000 , 34.3781000  , -39.6690000, -7.8130000 ,  7.9660000, 0.000000,       0,       0,       0
 1.980, -0.0042000, 0.0114000 ,  9.6792000, 35.1868000, 34.8816000 , 34.3781000  , -39.2930000, -7.9530000 ,  7.3910000, 0.000000,       0,       0,       0
 1.990, -0.0042000, 0.0138000 ,  9.6792000, 35.1944000, 34.8892000 , 34.3857000  , -39.5710000, -8.1090000 ,  8.2540000, 0.000000,       0,       0,       0
 2.000, -0.0054000, 0.0138000 ,  9.6804000, 35.2020000, 34.9045000 , 34.3857000  , -39.5180000, -8.0500000 ,  7.6140000, 0.000000,       0,       0,       0
 2.010, -0.0054000, 0.0138000 ,  9.6816000, 35.2097000, 34.9121000 , 34.3857000  , -39.5960000, -7.8900000 ,  8.1890000, 0.000000,       0,       0,       0
 2.020, -0.0054000, 0.0126000 ,  9.6828000, 35.2097000, 34.9121000 , 34.3857000  , -39.6620000, -8.0780000 ,  8.5340000, 0.000000,       0,       0,       0
 2.030, -0.0054000, 0.0114000 ,  9.6816000, 35.2097000, 34.9045000 , 34.3857000  , -39.6970000, -7.8550000 ,  8.6210000, 0.000000,       0,       0,       0
 2.040, -0.0066000, 0.0102000 ,  9.6804000, 35.2249000, 34.9045000 , 34.3933000  , -39.5670000, -7.9260000 ,  8.6340000, 0.000000,       0,       0,       0
 2.050, -0.0066000, 0.0102000 ,  9.6792000, 35.2325000, 34.9045000 , 34.3933000  , -39.5420000, -7.8570000 ,  8.7430000, 0.000000,       0,       0,       0
 2.060, -0.0078000, 0.0126000 ,  9.6804000, 35.2325000, 34.9045000 , 34.4009000  , -39.4130000, -8.1510000 ,  8.6530000, 0.000000,       0,       0,       0
 2.070, -0.0078000, 0.0138000 ,  9.6804000, 35.2249000, 34.8969000 , 34.3933000  , -39.8240000, -7.6870000 ,  8.1930000, 0.000000,       0,       0,       0
 2.080, -0.0078000, 0.0138000 ,  9.6804000, 35.2173000, 34.8816000 , 34.3857000  , -39.8340000, -7.8280000 ,  8.3500000, 0.000000,       0,       0,       0
 2.090, -0.0078000, 0.0138000 ,  9.6792000, 35.2020000, 34.8587000 , 34.3781000  , -39.4850000, -8.0240000 ,  8.2770000, 0.000000,       0,       0,       0
 2.100, -0.0090000, 0.0126000 ,  9.6792000, 35.1868000, 34.8434000 , 34.3704000  , -39.5430000, -8.0100000 ,  8.3840000, 0.000000,       0,       0,       0
 2.110, -0.0090000, 0.0126000 ,  9.6792000, 35.1791000, 34.8358000 , 34.3704000  , -39.6370000, -8.0620000 ,  8.1540000, 0.000000,       0,       0,       0
 2.120, -0.0102000, 0.0126000 ,  9.6780000, 35.1639000, 34.8282000 , 34.3704000  , -39.8030000, -8.0270000 ,  8.4830000, 0.000000,       0,       0,       0
 2.130, -0.0090000, 0.0102000 ,  9.6792000, 35.1562000, 34.8206000 , 34.3781000  , -39.4410000, -7.9570000 ,  8.5570000, 0.000000,       0,       0,       0
 2.140, -0.0090000, 0.0090000 ,  9.6780000, 35.1562000, 34.8053000 , 34.3781000  , -39.2830000, -7.7200000 ,  7.5460000, 0.000000,       0,       0,       0
 2.150, -0.0078000, 0.0066000 ,  9.6780000, 35.1562000, 34.7900000 , 34.3781000  , -39.5050000, -7.8130000 ,  8.4710000, 0.000000,       0,       0,       0
 2.160, -0.0090000, 0.0066000 ,  9.6804000, 35.1562000, 34.7672000 , 34.3781000  , -39.7190000, -7.9360000 ,  8.8430000, 0.000000,       0,       0,       0
 2.170, -0.0090000, 0.0078000 ,  9.6804000, 35.1562000, 34.7519000 , 34.3781000  , -39.5320000, -8.0850000 ,  7.9750000, 0.000000,       0,       0,       0
 2.180, -0.0078000, 0.0090000 ,  9.6816000, 35.1562000, 34.7443000 , 34.3781000  , -39.7130000, -8.1450000 ,  8.0540000, 0.000000,       0,       0,       0
 2.190, -0.0066000, 0.0114000 ,  9.6828000, 35.1486000, 34.7443000 , 34.3704000  , -39.7890000, -7.9990000 ,  7.9710000, 0.000000,       0,       0,       0
 2.200, -0.0066000, 0.0126000 ,  9.6828000, 35.1486000, 34.7443000 , 34.3704000  , -39.4600000, -7.9630000 ,  7.0970000, 0.000000,       0,       0,       0
 2.210, -0.0066000, 0.0126000 ,  9.6816000, 35.1486000, 34.7443000 , 34.3704000  , -39.5980000, -8.1790000 ,  7.3940000, 0.000000,       0,       0,       0
 2.220, -0.0054000, 0.0126000 ,  9.6780000, 35.1486000, 34.7366000 , 34.3781000  , -39.6240000, -8.1340000 ,  7.2800000, 0.000000,       0,       0,       0
 2.230, -0.0054000, 0.0114000 ,  9.6768000, 35.1486000, 34.7443000 , 34.3781000  , -39.7120000, -7.8990000 ,  7.4800000, 0.000000,       0,       0,       0
 2.240, -0.0054000, 0.0102000 ,  9.6780000, 35.1486000, 34.7519000 , 34.3857000  , -39.4750000, -8.2360000 ,  7.9090000, 0.000000,       0,       0,       0
 2.250, -0.0054000, 0.0114000 ,  9.6804000, 35.1486000, 34.7672000 , 34.3781000  , -39.4880000, -8.4070000 ,  8.3170000, 0.000000,       0,       0,       0
 2.260, -0.0054000, 0.0114000 ,  9.6804000, 35.1486000, 34.7824000 , 34.3781000  , -39.5620000, -7.9700000 ,  8.0710000, 0.000000,       0,       0,       0
 2.270, -0.0054000, 0.0126000 ,  9.6792000, 35.1486000, 34.8053000 , 34.3704000  , -39.7020000, -7.8380000 ,  8.0800000, 0.000000,       0,       0,       0
 2.280, -0.0054000, 0.0114000 ,  9.6804000, 35.1562000, 34.8358000 , 34.3704000  , -39.3660000, -8.0910000 ,  7.5700000, 0.000000,       0,       0,       0
 2.290, -0.0054000, 0.0114000 ,  9.6804000, 35.1562000, 34.8511000 , 34.3704000  , -39.6810000, -8.0620000 ,  7.4580000, 0.000000,       0,       0,       0
 2.300, -0.0054000, 0.0102000 ,  9.6804000, 35.1639000, 34.8587000 , 34.3704000  , -39.4390000, -8.0280000 ,  7.5570000, 0.000000,       0,       0,       0
 2.310, -0.0066000, 0.0090000 ,  9.6792000, 35.1639000, 34.8511000 , 34.3704000  , -39.3690000, -7.9130000 ,  7.9660000, 0.000000,       0,       0,       0
 2.320, -0.0054000, 0.0102000 ,  9.6792000, 35.1562000, 34.8511000 , 34.3781000  , -39.5450000, -7.7670000 ,  7.7710000, 0.000000,       0,       0,       0
 2.330, -0.0054000, 0.0102000 ,  9.6780000, 35.1562000, 34.8511000 , 34.3781000  , -39.5060000, -7.6200000 ,  8.1380000, 0.000000,       0,       0,       0
 2.340, -0.0054000, 0.0102000 ,  9.6768000, 35.1562000, 34.8511000 , 34.3704000  , -39.4270000, -8.0720000 ,  7.6560000, 0.000000,       0,       0,       0
 2.350, -0.0054000, 0.0102000 ,  9.6768000, 35.1562000, 34.8587000 , 34.3704000  , -39.7470000, -7.7550000 ,  7.8980000, 0.000000,       0,       0,       0
 2.360, -0.0054000, 0.0090000 ,  9.6768000, 35.1486000, 34.8740000 , 34.3628000  , -39.6420000, -7.8140000 ,  7.5630000, 0.000000,       0,       0,       0
 2.370, -0.0066000, 0.0078000 ,  9.6780000, 35.1486000, 34.8816000 , 34.3704000  , -39.9050000, -7.9920000 ,  7.6960000, 0.000000,       0,       0,       0
 2.380, -0.0054000, 0.0078000 ,  9.6792000, 35.1486000, 34.8892000 , 34.3704000  , -39.8300000, -7.6860000 ,  7.8410000, 0.000000,       0,       0,       0
 2.390, -0.0054000, 0.0078000 ,  9.6804000, 35.1410000, 34.8816000 , 34.3781000  , -39.7870000, -8.1120000 ,  7.5300000, 0.000000,       0,       0,       0
 2.400, -0.0042000, 0.0102000 ,  9.6792000, 35.1410000, 34.8740000 , 34.3781000  , -39.7550000, -7.7410000 ,  7.9330000, 0.000000,       0,       0,       0
 2.410, -0.0054000, 0.0114000 ,  9.6792000, 35.1334000, 34.8511000 , 34.3781000  , -39.8460000, -7.7380000 ,  8.1920000, 0.000000,       0,       0,       0
 2.420, -0.0054000, 0.0126000 ,  9.6792000, 35.1257000, 34.8282000 , 34.3704000  , -39.6100000, -7.8760000 ,  8.0260000, 0.000000,       0,       0,       0
 2.430, -0.0066000, 0.0126000 ,  9.6792000, 35.1257000, 34.8053000 , 34.3628000  , -39.7250000, -7.9120000 ,  7.5510000, 0.000000,       0,       0,       0
 2.440, -0.0066000, 0.0114000 ,  9.6780000, 35.1334000, 34.7900000 , 34.3628000  , -39.6180000, -7.6970000 ,  7.8570000, 0.000000,       0,       0,       0
 2.450, -0.0078000, 0.0102000 ,  9.6780000, 35.1334000, 34.7672000 , 34.3628000  , -39.8440000, -7.9820000 ,  8.0650000, 0.000000,       0,       0,       0
 2.460, -0.0078000, 0.0102000 ,  9.6792000, 35.1334000, 34.7443000 , 34.3628000  , -39.5960000, -7.5810000 ,  7.6620000, 0.000000,       0,       0,       0
 2.470, -0.0078000, 0.0090000 ,  9.6804000, 35.1410000, 34.7214000 , 34.3628000  , -39.7210000, -7.9090000 ,  8.2730000, 0.000000,       0,       0,       0
 2.480, -0.0078000, 0.0078000 ,  9.6804000, 35.1410000, 34.7061000 , 34.3628000  , -39.6910000, -7.9920000 ,  8.4550000, 0.000000,       0,       0,       0
 2.490, -0.0078000, 0.0078000 ,  9.6792000, 35.1334000, 34.6985000 , 34.3628000  , -39.5270000, -7.9850000 ,  8.1040000, 0.000000,       0,       0,       0
 2.500, -0.0090000, 0.0090000 ,  9.6792000, 35.1181000, 34.6832000 , 34.3628000  , -39.5450000, -7.9680000 ,  8.3530000, 0.000000,       0,       0,       0
 2.510, -0.0102000, 0.0078000 ,  9.6792000, 35.1181000, 34.6832000 , 34.3704000  , -39.4200000, -7.7560000 ,  8.2320000, 0.000000,       0,       0,       0
 2.520, -0.0114000, 0.0078000 ,  9.6804000, 35.1181000, 34.6985000 , 34.3704000  , -39.3060000, -8.2100000 ,  8.0810000, 0.000000,       0,       0,       0
 2.530, -0.0114000, 0.0078000 ,  9.6792000, 35.1105000, 34.7137000 , 34.3704000  , -39.4610000, -8.1070000 ,  7.5040000, 0.000000,       0,       0,       0
 2.540, -0.0126000, 0.0078000 ,  9.6768000, 35.1105000, 34.7290000 , 34.3781000  , -39.5720000, -7.6720000 ,  7.3890000, 0.000000,       0,       0,       0
 2.550, -0.0114000, 0.0078000 ,  9.6744000, 35.1181000, 34.7443000 , 34.3781000  , -39.5190000, -7.7410000 ,  7.6250000, 0.000000,       0,       0,       0
 2.560, -0.0114000, 0.0078000 ,  9.6744000, 35.1334000, 34.7519000 , 34.3704000  , -39.5490000, -8.1240000 ,  8.4120000, 0.000000,       0,       0,       0
 2.570, -0.0102000, 0.0078000 ,  9.6744000, 35.1410000, 34.7672000 , 34.3704000  , -39.5100000, -7.8760000 ,  8.0160000, 0.000000,       0,       0,       0
 2.580, -0.0090000, 0.0078000 ,  9.6756000, 35.1486000, 34.7595000 , 34.3704000  , -39.4770000, -8.0370000 ,  7.9270000, 0.000000,       0,       0,       0
 2.590, -0.0066000, 0.0078000 ,  9.6768000, 35.1562000, 34.7595000 , 34.3628000  , -39.6460000, -8.1490000 ,  8.3070000, 0.000000,       0,       0,       0
 2.600, -0.0066000, 0.0078000 ,  9.6792000, 35.1562000, 34.7519000 , 34.3628000  , -39.4210000, -8.0170000 ,  8.2950000, 0.000000,       0,       0,       0
 2.610, -0.0042000, 0.0078000 ,  9.6804000, 35.1562000, 34.7595000 , 34.3552000  , -39.8680000, -8.0400000 ,  7.6640000, 0.000000,       0,       0,       0
 2.620, -0.0042000, 0.0066000 ,  9.6804000, 35.1486000, 34.7672000 , 34.3628000  , -39.8760000, -8.0700000 ,  7.8700000, 0.000000,       0,       0,       0
 2.630, -0.0054000, 0.0066000 ,  9.6792000, 35.1410000, 34.7672000 , 34.3704000  , -39.8610000, -7.9050000 ,  7.7660000, 0.000000,       0,       0,       0
 2.640, -0.0054000, 0.0066000 ,  9.6780000, 35.1410000, 34.7672000 , 34.3704000  , -39.8120000, -8.0700000 ,  6.9630000, 0.000000,       0,       0,       0
 2.650, -0.0054000, 0.0078000 ,  9.6792000, 35.1410000, 34.7824000 , 34.3781000  , -39.7270000, -8.3230000 ,  8.1350000, 0.000000,       0,       0,       0
 2.660, -0.0054000, 0.0078000 ,  9.6792000, 35.1486000, 34.7900000 , 34.3781000  , -39.8580000, -8.4200000 ,  7.4690000, 0.000000,       0,       0,       0
 2.670, -0.0042000, 0.0078000 ,  9.6780000, 35.1486000, 34.7977000 , 34.3781000  , -39.8310000, -8.1990000 ,  7.7360000, 0.000000,       0,       0,       0
 2.680, -0.0054000, 0.0054000 ,  9.6780000, 35.1486000, 34.8053000 , 34.3857000  , -39.3270000, -8.2160000 ,  8.5310000, 0.000000,       0,       0,       0
 2.690, -0.0066000, 0.0054000 ,  9.6780000, 35.1562000, 34.7900000 , 34.3857000  , -39.4470000, -8.0560000 ,  7.9130000, 0.000000,       0,       0,       0
 2.700, -0.0078000, 0.0066000 ,  9.6804000, 35.1562000, 34.7824000 , 34.3781000  , -39.8130000, -8.2590000 ,  7.7980000, 0.000000,       0,       0,       0
 2.710, -0.0078000, 0.0102000 ,  9.6804000, 35.1639000, 34.7672000 , 34.3781000  , -39.6880000, -8.4070000 ,  7.8740000, 0.000000,       0,       0,       0
 2.720, -0.0078000, 0.0102000 ,  9.6792000, 35.1639000, 34.7595000 , 34.3781000  , -39.5110000, -7.7830000 ,  7.8280000, 0.000000,       0,       0,       0
 2.730, -0.0078000, 0.0102000 ,  9.6804000, 35.1639000, 34.7595000 , 34.3781000  , -39.8780000, -8.2960000 ,  8.0010000, 0.000000,       0,       0,       0
 2.740, -0.0066000, 0.0090000 ,  9.6816000, 35.1562000, 34.7595000 , 34.3781000  , -39.5650000, -7.9300000 ,  8.6120000, 0.000000,       0,       0,       0
 2.750, -0.0066000, 0.0078000 ,  9.6804000, 35.1486000, 34.7595000 , 34.3781000  , -39.6390000, -7.9980000 ,  8.3430000, 0.000000,       0,       0,       0
 2.760, -0.0066000, 0.0078000 ,  9.6792000, 35.1486000, 34.7519000 , 34.3781000  , -39.6730000, -8.1910000 ,  7.8200000, 0.000000,       0,       0,       0
 2.770, -0.0066000, 0.0090000 ,  9.6768000, 35.1486000, 34.7443000 , 34.3781000  , -40.0300000, -7.9820000 ,  8.0360000, 0.000000,       0,       0,       0
 2.780, -0.0066000, 0.0102000 ,  9.6768000, 35.1486000, 34.7366000 , 34.3781000  , -39.6020000, -8.1770000 ,  7.1790000, 0.000000,       0,       0,       0
 2.790, -0.0078000, 0.0126000 ,  9.6768000, 35.1410000, 34.7366000 , 34.3781000  , -39.6910000, -8.1160000 ,  7.8110000, 0.000000,       0,       0,       0
 2.800, -0.0078000, 0.0126000 ,  9.6768000, 35.1410000, 34.7366000 , 34.3781000  , -39.6270000, -8.1020000 ,  7.5640000, 0.000000,       0,       0,       0
 2.810, -0.0078000, 0.0114000 ,  9.6768000, 35.1410000, 34.7443000 , 34.3704000  , -39.6680000, -8.2930000 ,  7.7710000, 0.000000,       0,       0,       0
 2.820, -0.0066000, 0.0102000 ,  9.6792000, 35.1334000, 34.7519000 , 34.3628000  , -39.9280000, -8.1440000 ,  7.9720000, 0.000000,       0,       0,       0
 2.830, -0.0054000, 0.0090000 ,  9.6792000, 35.1334000, 34.7595000 , 34.3628000  , -39.5560000, -8.1440000 ,  7.7170000, 0.000000,       0,       0,       0
 2.840, -0.0054000, 0.0090000 ,  9.6792000, 35.1257000, 34.7672000 , 34.3628000  , -39.6560000, -7.9870000 ,  7.5070000, 0.000000,       0,       0,       0
 2.850, -0.0054000, 0.0102000 ,  9.6792000, 35.1257000, 34.7595000 , 34.3704000  , -39.7100000, -8.6160000 ,  7.7870000, 0.000000,       0,       0,       0
 2.860, -0.0054000, 0.0102000 ,  9.6804000, 35.1257000, 34.7366000 , 34.3781000  , -39.7570000, -8.1090000 ,  7.7390000, 0.000000,       0,       0,       0
 2.870, -0.0066000, 0.0090000 ,  9.6816000, 35.1257000, 34.7137000 , 34.3781000  , -39.7340000, -8.2520000 ,  7.2350000, 0.000000,       0,       0,       0
 2.880, -0.0066000, 0.0078000 ,  9.6804000, 35.1334000, 34.7061000 , 34.3781000  , -39.3210000, -8.0090000 ,  8.1460000, 0.000000,       0,       0,       0
 2.890, -0.0054000, 0.0078000 ,  9.6792000, 35.1410000, 34.7137000 , 34.3704000  , -39.7860000, -7.9950000 ,  8.0020000, 0.000000,       0,       0,       0
 2.900, -0.0054000, 0.0090000 ,  9.6792000, 35.1410000, 34.7366000 , 34.3704000  , -39.8240000, -8.3560000 ,  7.3100000, 0.000000,       0,       0,       0
 2.910, -0.0054000, 0.0102000 ,  9.6792000, 35.1410000, 34.7672000 , 34.3628000  , -39.6170000, -8.1060000 ,  8.1470000, 0.000000,       0,       0,       0
 2.920, -0.0066000, 0.0102000 ,  9.6792000, 35.1410000, 34.7824000 , 34.3552000  , -39.5670000, -8.1910000 ,  8.3640000, 0.000000,       0,       0,       0
 2.930, -0.0078000, 0.0114000 ,  9.6780000, 35.1486000, 34.7977000 , 34.3552000  , -39.5900000, -8.0200000 ,  8.0090000, 0.000000,       0,       0,       0
 2.940, -0.0066000, 0.0114000 ,  9.6780000, 35.1562000, 34.7977000 , 34.3552000  , -39.6090000, -8.2050000 ,  7.8940000, 0.000000,       0,       0,       0
 2.950, -0.0054000, 0.0102000 ,  9.6780000, 35.1486000, 34.7824000 , 34.3628000  , -39.7100000, -8.2630000 ,  8.2710000, 0.000000,       0,       0,       0
 2.960, -0.0042000, 0.0090000 ,  9.6780000, 35.1410000, 34.7748000 , 34.3704000  , -39.4840000, -7.9500000 ,  8.0590000, 0.000000,       0,       0,       0
 2.970, -0.0054000, 0.0078000 ,  9.6768000, 35.1334000, 34.7595000 , 34.3704000  , -39.8980000, -8.2800000 ,  7.3840000, 0.000000,       0,       0,       0
 2.980, -0.0054000, 0.0078000 ,  9.6780000, 35.1334000, 34.7519000 , 34.3704000  , -39.7650000, -8.0670000 ,  7.6320000, 0.000000,       0,       0,       0
 2.990, -0.0054000, 0.0090000 ,  9.6792000, 35.1334000, 34.7519000 , 34.3628000  , -39.8380000, -8.0620000 ,  8.1640000, 0.000000,       0,       0,       0
 3.000, -0.0054000, 0.0102000 ,  9.6792000, 35.1334000, 34.7519000 , 34.3628000  , -39.6550000, -8.1000000 ,  7.8150000, 0.000000,       0,       0,       0
 3.010, -0.0042000, 0.0114000 ,  9.6792000, 35.1334000, 34.7595000 , 34.3552000  , -39.5760000, -8.1280000 ,  8.0200000, 0.000000,       0,       0,       0
 3.020, -0.0030000, 0.0102000 ,  9.6792000, 35.1410000, 34.7595000 , 34.3552000  , -39.6520000, -7.7520000 ,  8.0310000, 0.000000,       0,       0,       0
 3.030, -0.0030000, 0.0078000 ,  9.6792000, 35.1486000, 34.7672000 , 34.3552000  , -39.7520000, -8.2760000 ,  7.9460000, 0.000000,       0,       0,       0
 3.040, -0.0030000, 0.0054000 ,  9.6804000, 35.1562000, 34.7672000 , 34.3628000  , -39.7130000, -7.8560000 ,  7.6420000, 0.000000,       0,       0,       0
 3.050, -0.0030000, 0.0054000 ,  9.6792000, 35.1715000, 34.7672000 , 34.3628000  , -39.7250000, -8.0480000 ,  7.5150000, 0.000000,       0,       0,       0
 3.060, -0.0042000, 0.0066000 ,  9.6792000, 35.1715000, 34.7672000 , 34.3628000  , -39.6650000, -7.9580000 ,  7.3860000, 0.000000,       0,       0,       0
 3.070, -0.0042000, 0.0078000 ,  9.6792000, 35.1715000, 34.7672000 , 34.3704000  , -39.6860000, -8.0890000 ,  7.7700000, 0.000000,       0,       0,       0
 3.080, -0.0042000, 0.0090000 ,  9.6804000, 35.1715000, 34.7672000 , 34.3704000  , -39.6250000, -8.1640000 ,  7.5040000, 0.000000,       0,       0,       0
 3.090, -0.0042000, 0.0114000 ,  9.6816000, 35.1715000, 34.7595000 , 34.3704000  , -39.8410000, -7.9860000 ,  7.3760000, 0.000000,       0,       0,       0
 3.100, -0.0042000, 0.0114000 ,  9.6804000, 35.1639000, 34.7519000 , 34.3781000  , -39.6960000, -7.8610000 ,  7.2940000, 0.000000,       0,       0,       0
 3.110, -0.0030000, 0.0102000 ,  9.6792000, 35.1562000, 34.7519000 , 34.3781000  , -39.7490000, -7.9430000 ,  7.6420000, 0.000000,       0,       0,       0
 3.120, -0.0018000, 0.0090000 ,  9.6780000, 35.1562000, 34.7519000 , 34.3781000  , -39.6120000, -8.0060000 ,  7.5470000, 0.000000,       0,       0,       0
 3.130, -0.0018000, 0.0066000 ,  9.6768000, 35.1562000, 34.7595000 , 34.3781000  , -39.5270000, -7.8570000 ,  7.2830000, 0.000000,       0,       0,       0
 3.140, -0.0018000, 0.0054000 ,  9.6768000, 35.1562000, 34.7595000 , 34.3781000  , -39.3850000, -7.9950000 ,  7.8460000, 0.000000,       0,       0,       0
 3.150, -0.0006000, 0.0054000 ,  9.6768000, 35.1562000, 34.7672000 , 34.3781000  , -39.7900000, -7.7820000 ,  8.0110000, 0.000000,       0,       0,       0
 3.160, -0.0006000, 0.0054000 ,  9.6792000, 35.1562000, 34.7595000 , 34.3781000  , -39.5680000, -7.9840000 ,  7.6080000, 0.000000,       0,       0,       0
 3.170, -0.0006000, 0.0054000 ,  9.6792000, 35.1562000, 34.7519000 , 34.3781000  , -39.7270000, -7.8850000 ,  7.3900000, 0.000000,       0,       0,       0
 3.180, -0.0018000, 0.0078000 ,  9.6792000, 35.1639000, 34.7519000 , 34.3781000  , -39.6840000, -7.7490000 ,  7.3130000, 0.000000,       0,       0,       0
 3.190, -0.0054000, 0.0102000 ,  9.6768000, 35.1715000, 34.7519000 , 34.3781000  , -39.7680000, -7.8040000 ,  7.6890000, 0.000000,       0,       0,       0
 3.200, -0.0054000, 0.0114000 ,  9.6768000, 35.1715000, 34.7519000 , 34.3781000  , -39.6410000, -8.0790000 ,  7.9280000, 0.000000,       0,       0,       0
 3.210, -0.0054000, 0.0114000 ,  9.6780000, 35.1639000, 34.7595000 , 34.3704000  , -39.6240000, -8.0550000 ,  7.9160000, 0.000000,       0,       0,       0
 3.220, -0.0054000, 0.0102000 ,  9.6792000, 35.1639000, 34.7595000 , 34.3704000  , -39.5020000, -7.9900000 ,  7.4410000, 0.000000,       0,       0,       0
 3.230, -0.0042000, 0.0102000 ,  9.6792000, 35.1639000, 34.7672000 , 34.3704000  , -39.6750000, -8.1710000 ,  7.8730000, 0.000000,       0,       0,       0
 3.240, -0.0030000, 0.0090000 ,  9.6780000, 35.1562000, 34.7672000 , 34.3628000  , -39.7600000, -7.9830000 ,  7.3150000, 0.000000,       0,       0,       0
 3.250, -0.0030000, 0.0090000 ,  9.6780000, 35.1639000, 34.7595000 , 34.3628000  , -39.7990000, -8.1590000 ,  7.5310000, 0.000000,       0,       0,       0
 3.260, -0.0042000, 0.0090000 ,  9.6780000, 35.1639000, 34.7595000 , 34.3628000  , -39.5130000, -8.2520000 ,  7.5650000, 0.000000,       0,       0,       0
 3.270, -0.0042000, 0.0102000 ,  9.6780000, 35.1639000, 34.7672000 , 34.3628000  , -39.6950000, -8.1840000 ,  7.8870000, 0.000000,       0,       0,       0
 3.280, -0.0042000, 0.0114000 ,  9.6792000, 35.1562000, 34.7672000 , 34.3628000  , -39.8430000, -8.2320000 ,  7.3590000, 0.000000,       0,       0,       0
 3.290, -0.0042000, 0.0102000 ,  9.6792000, 35.1562000, 34.7748000 , 34.3704000  , -39.5350000, -7.8290000 ,  7.2450000, 0.000000,       0,       0,       0
 3.300, -0.0030000, 0.0090000 ,  9.6792000, 35.1486000, 34.7824000 , 34.3704000  , -39.8180000, -7.9840000 ,  6.9880000, 0.000000,       0,       0,       0
 3.310, -0.0030000, 0.0066000 ,  9.6792000, 35.1562000, 34.7824000 , 34.3628000  , -39.8970000, -7.8390000 ,  7.5090000, 0.000000,       0,       0,       0
 3.320, -0.0030000, 0.0042000 ,  9.6780000, 35.1562000, 34.7824000 , 34.3628000  , -39.8630000, -8.2080000 ,  7.8690000, 0.000000,       0,       0,       0
 3.330, -0.0042000, 0.0042000 ,  9.6780000, 35.1562000, 34.7748000 , 34.3704000  , -40.0190000, -8.0710000 ,  7.3410000, 0.000000,       0,       0,       0
 3.340, -0.0042000, 0.0066000 ,  9.6768000, 35.1639000, 34.7595000 , 34.3781000  , -39.7910000, -7.8840000 ,  7.5330000, 0.000000,       0,       0,       0
 3.350, -0.0042000, 0.0066000 ,  9.6780000, 35.1715000, 34.7519000 , 34.3857000  , -39.8360000, -8.0240000 ,  8.1260000, 0.000000,       0,       0,       0
 3.360, -0.0030000, 0.0066000 ,  9.6792000, 35.1715000, 34.7595000 , 34.3857000  , -39.7590000, -7.8890000 ,  7.8050000, 0.000000,       0,       0,       0
 3.370, -0.0030000, 0.0054000 ,  9.6804000, 35.1715000, 34.7672000 , 34.3857000  , -39.8980000, -8.0500000 ,  8.1460000, 0.000000,       0,       0,       0
 3.380, -0.0030000, 0.0042000 ,  9.6816000, 35.1715000, 34.7748000 , 34.3857000  , -39.5020000, -7.9820000 ,  7.7430000, 0.000000,       0,       0,       0
 3.390, -0.0042000, 0.0030000 ,  9.6804000, 35.1639000, 34.7900000 , 34.3857000  , -39.9550000, -7.8410000 ,  7.8330000, 0.000000,       0,       0,       0
 3.400, -0.0042000, 0.0030000 ,  9.6792000, 35.1639000, 34.7977000 , 34.3781000  , -39.6000000, -7.9300000 ,  7.8940000, 0.000000,       0,       0,       0
 3.410, -0.0042000, 0.0042000 ,  9.6768000, 35.1639000, 34.7977000 , 34.3781000  , -39.7770000, -7.9350000 ,  8.2310000, 0.000000,       0,       0,       0
 3.420, -0.0030000, 0.0054000 ,  9.6756000, 35.1639000, 34.7977000 , 34.3781000  , -39.6860000, -7.9520000 ,  7.8510000, 0.000000,       0,       0,       0
 3.430, -0.0018000, 0.0066000 ,  9.6756000, 35.1715000, 34.7900000 , 34.3857000  , -39.7950000, -7.6370000 ,  7.7650000, 0.000000,       0,       0,       0
 3.440, -0.0018000, 0.0078000 ,  9.6756000, 35.1791000, 34.7824000 , 34.3781000  , -39.5620000, -7.9200000 ,  7.9620000, 0.000000,       0,       0,       0
 3.450, -0.0030000, 0.0090000 ,  9.6756000, 35.1868000, 34.7748000 , 34.3781000  , -40.0750000, -8.0980000 ,  7.8160000, 0.000000,       0,       0,       0
 3.460, -0.0042000, 0.0102000 ,  9.6768000, 35.1868000, 34.7748000 , 34.3781000  , -39.3460000, -7.7900000 ,  8.7250000, 0.000000,       0,       0,       0
 3.470, -0.0054000, 0.0126000 ,  9.6780000, 35.1868000, 34.7824000 , 34.3781000  , -39.5130000, -7.6050000 ,  8.5040000, 0.000000,       0,       0,       0
 3.480, -0.0066000, 0.0114000 ,  9.6792000, 35.1791000, 34.7900000 , 34.3704000  , -39.2940000, -7.6360000 ,  8.3080000, 0.000000,       0,       0,       0
 3.490, -0.0066000, 0.0090000 ,  9.6792000, 35.1715000, 34.7977000 , 34.3704000  , -39.7680000, -7.8970000 ,  7.9790000, 0.000000,       0,       0,       0
 3.500, -0.0042000, 0.0066000 ,  9.6804000, 35.1639000, 34.7977000 , 34.3704000  , -39.7970000, -7.4890000 ,  8.4690000, 0.000000,       0,       0,       0
 3.510, -0.0030000, 0.0042000 ,  9.6804000, 35.1562000, 34.7977000 , 34.3704000  , -39.7980000, -7.9550000 ,  7.9110000, 0.000000,       0,       0,       0
 3.520, -0.0030000, 0.0030000 ,  9.6804000, 35.1639000, 34.7977000 , 34.3704000  , -39.5890000, -7.7540000 ,  7.7530000, 0.000000,       0,       0,       0
 3.530, -0.0030000, 0.0030000 ,  9.6792000, 35.1639000, 34.8053000 , 34.3704000  , -39.5440000, -7.8880000 ,  7.8470000, 0.000000,       0,       0,       0
 3.540, -0.0030000, 0.0042000 ,  9.6780000, 35.1715000, 34.8206000 , 34.3704000  , -39.6150000, -7.8090000 ,  7.9900000, 0.000000,       0,       0,       0
 3.550, -0.0018000, 0.0054000 ,  9.6768000, 35.1791000, 34.8358000 , 34.3628000  , -39.6550000, -7.8050000 ,  8.1380000, 0.000000,       0,       0,       0
 3.560, -0.0030000, 0.0066000 ,  9.6768000, 35.1944000, 34.8434000 , 34.3628000  , -39.5860000, -8.0100000 ,  7.7700000, 0.000000,       0,       0,       0
 3.570, -0.0030000, 0.0054000 ,  9.6756000, 35.2020000, 34.8511000 , 34.3628000  , -39.9130000, -7.9410000 ,  7.6810000, 0.000000,       0,       0,       0
 3.580, -0.0030000, 0.0066000 ,  9.6756000, 35.2097000, 34.8511000 , 34.3628000  , -39.6610000, -7.9840000 ,  7.9170000, 0.000000,       0,       0,       0
 3.590, -0.0018000, 0.0066000 ,  9.6756000, 35.2020000, 34.8511000 , 34.3628000  , -39.7850000, -8.0360000 ,  8.0350000, 0.000000,       0,       0,       0
 3.600, -0.0018000, 0.0066000 ,  9.6768000, 35.1944000, 34.8434000 , 34.3704000  , -39.8600000, -8.0900000 ,  7.7420000, 0.000000,       0,       0,       0
 3.610, -0.0018000, 0.0078000 ,  9.6780000, 35.1868000, 34.8434000 , 34.3781000  , -39.8220000, -7.7870000 ,  8.1070000, 0.000000,       0,       0,       0
 3.620, -0.0042000, 0.0078000 ,  9.6768000, 35.1791000, 34.8511000 , 34.3781000  , -39.7080000, -7.6210000 ,  7.4990000, 0.000000,       0,       0,       0
 3.630, -0.0078000, 0.0078000 ,  9.6744000, 35.1791000, 34.8587000 , 34.3781000  , -39.6700000, -7.9930000 ,  7.6450000, 0.000000,       0,       0,       0
 3.640, -0.0078000, 0.0090000 ,  9.6756000, 35.1791000, 34.8587000 , 34.3857000  , -39.5430000, -8.1670000 ,  7.6980000, 0.000000,       0,       0,       0
 3.650, -0.0090000, 0.0102000 ,  9.6780000, 35.1791000, 34.8587000 , 34.3857000  , -39.6420000, -7.9730000 ,  7.9280000, 0.000000,       0,       0,       0
 3.660, -0.0090000, 0.0102000 ,  9.6780000, 35.1791000, 34.8511000 , 34.3781000  , -39.6140000, -7.8920000 ,  8.1640000, 0.000000,       0,       0,       0
 3.670, -0.0090000, 0.0090000 ,  9.6780000, 35.1791000, 34.8511000 , 34.3704000  , -39.5970000, -8.1650000 ,  7.8410000, 0.000000,       0,       0,       0
 3.680, -0.0078000, 0.0066000 ,  9.6780000, 35.1715000, 34.8511000 , 34.3628000  , -39.4980000, -8.0430000 ,  8.7300000, 0.000000,       0,       0,       0
 3.690, -0.0066000, 0.0066000 ,  9.6780000, 35.1715000, 34.8511000 , 34.3628000  , -39.5850000, -8.2310000 ,  8.7440000, 0.000000,       0,       0,       0
 3.700, -0.0054000, 0.0054000 ,  9.6780000, 35.1715000, 34.8587000 , 34.3704000  , -39.6610000, -8.3720000 ,  7.4730000, 0.000000,       0,       0,       0
 3.710, -0.0042000, 0.0078000 ,  9.6768000, 35.1868000, 34.8663000 , 34.3704000  , -39.6670000, -7.8880000 ,  8.0480000, 0.000000,       0,       0,       0
 3.720, -0.0042000, 0.0090000 ,  9.6768000, 35.2020000, 34.8663000 , 34.3781000  , -39.4020000, -8.1130000 ,  7.7580000, 0.000000,       0,       0,       0
 3.730, -0.0054000, 0.0102000 ,  9.6792000, 35.2173000, 34.8816000 , 34.3781000  , -39.3740000, -8.1920000 ,  8.2560000, 0.000000,       0,       0,       0
 3.740, -0.0066000, 0.0090000 ,  9.6792000, 35.2173000, 34.8892000 , 34.3781000  , -39.1670000, -8.1710000 ,  7.7150000, 0.000000,       0,       0,       0
 3.750, -0.0090000, 0.0090000 ,  9.6780000, 35.2173000, 34.8969000 , 34.3781000  , -39.6510000, -7.9810000 ,  8.7490000, 0.000000,       0,       0,       0
 3.760, -0.0102000, 0.0066000 ,  9.6768000, 35.2097000, 34.8969000 , 34.3781000  , -39.4850000, -7.9290000 ,  7.8440000, 0.000000,       0,       0,       0
 3.770, -0.0102000, 0.0066000 ,  9.6756000, 35.2020000, 34.9045000 , 34.3704000  , -39.6060000, -8.0790000 ,  8.3920000, 0.000000,       0,       0,       0
 3.780, -0.0090000, 0.0066000 ,  9.6756000, 35.2020000, 34.9121000 , 34.3781000  , -39.3170000, -8.3860000 ,  7.6090000, 0.000000,       0,       0,       0
 3.790, -0.0090000, 0.0078000 ,  9.6744000, 35.2020000, 34.9121000 , 34.3704000  , -39.6700000, -8.1510000 ,  7.6660000, 0.000000,       0,       0,       0
 3.800, -0.0090000, 0.0090000 ,  9.6744000, 35.2020000, 34.9045000 , 34.3704000  , -39.5280000, -8.0520000 ,  7.5980000, 0.000000,       0,       0,       0
 3.810, -0.0102000, 0.0102000 ,  9.6768000, 35.2097000, 34.8969000 , 34.3704000  , -39.6820000, -8.0340000 ,  8.1700000, 0.000000,       0,       0,       0
 3.820, -0.0114000, 0.0102000 ,  9.6804000, 35.2173000, 34.8816000 , 34.3704000  , -39.6560000, -7.7560000 ,  8.2230000, 0.000000,       0,       0,       0
 3.830, -0.0114000, 0.0102000 ,  9.6816000, 35.2249000, 34.8663000 , 34.3704000  , -39.5000000, -8.2610000 ,  7.8180000, 0.000000,       0,       0,       0
 3.840, -0.0102000, 0.0102000 ,  9.6804000, 35.2249000, 34.8434000 , 34.3781000  , -40.0100000, -8.1470000 ,  7.6800000, 0.000000,       0,       0,       0
 3.850, -0.0102000, 0.0090000 ,  9.6792000, 35.2249000, 34.8206000 , 34.3704000  , -39.7260000, -8.0780000 ,  8.2680000, 0.000000,       0,       0,       0
 3.860, -0.0102000, 0.0102000 ,  9.6780000, 35.2173000, 34.8053000 , 34.3704000  , -39.4850000, -7.9360000 ,  8.0590000, 0.000000,       0,       0,       0
 3.870, -0.0090000, 0.0102000 ,  9.6780000, 35.2097000, 34.8053000 , 34.3704000  , -39.6920000, -7.8930000 ,  7.3250000, 0.000000,       0,       0,       0
 3.880, -0.0090000, 0.0102000 ,  9.6768000, 35.2097000, 34.8053000 , 34.3628000  , -39.6620000, -8.1440000 ,  8.1220000, 0.000000,       0,       0,       0
 3.890, -0.0078000, 0.0102000 ,  9.6780000, 35.2097000, 34.8129000 , 34.3628000  , -39.5760000, -8.0930000 ,  8.4270000, 0.000000,       0,       0,       0
 3.900, -0.0078000, 0.0114000 ,  9.6780000, 35.2097000, 34.8282000 , 34.3628000  , -39.4280000, -7.7350000 ,  8.1260000, 0.000000,       0,       0,       0
 3.910, -0.0078000, 0.0102000 ,  9.6780000, 35.2097000, 34.8511000 , 34.3704000  , -39.6830000, -7.9990000 ,  8.4630000, 0.000000,       0,       0,       0
 3.920, -0.0090000, 0.0090000 ,  9.6768000, 35.2097000, 34.8663000 , 34.3704000  , -39.6050000, -8.1000000 ,  7.6690000, 0.000000,       0,       0,       0
 3.930, -0.0102000, 0.0090000 ,  9.6780000, 35.2097000, 34.8740000 , 34.3781000  , -39.5170000, -8.1040000 ,  7.9720000, 0.000000,       0,       0,       0
 3.940, -0.0102000, 0.0090000 ,  9.6768000, 35.2020000, 34.8816000 , 34.3781000  , -39.5820000, -8.2350000 ,  8.0360000, 0.000000,       0,       0,       0
 3.950, -0.0102000, 0.0114000 ,  9.6768000, 35.1944000, 34.8816000 , 34.3781000  , -39.6600000, -7.8170000 ,  7.8740000, 0.000000,       0,       0,       0
 3.960, -0.0102000, 0.0126000 ,  9.6768000, 35.1944000, 34.8892000 , 34.3781000  , -39.3890000, -8.1650000 ,  7.6800000, 0.000000,       0,       0,       0
 3.970, -0.0114000, 0.0150000 ,  9.6780000, 35.2020000, 34.9045000 , 34.3781000  , -39.7510000, -8.0670000 ,  8.2320000, 0.000000,       0,       0,       0
 3.980, -0.0114000, 0.0150000 ,  9.6804000, 35.2020000, 34.9274000 , 34.3704000  , -39.7020000, -8.0400000 ,  8.2290000, 0.000000,       0,       0,       0
 3.990, -0.0126000, 0.0138000 ,  9.6816000, 35.2097000, 34.9503000 , 34.3704000  , -39.7900000, -8.0850000 ,  8.2560000, 0.000000,       0,       0,       0
 4.000, -0.0126000, 0.0126000 ,  9.6804000, 35.2097000, 34.9731000 , 34.3704000  , -39.7300000, -8.0390000 ,  8.0730000, 0.000000,       0,       0,       0
 4.010, -0.0126000, 0.0102000 ,  9.6792000, 35.2173000, 34.9731000 , 34.3704000  , -39.9040000, -8.0980000 ,  8.0620000, 0.000000,       0,       0,       0
 4.020, -0.0126000, 0.0078000 ,  9.6792000, 35.2097000, 34.9579000 , 34.3704000  , -39.4460000, -8.0190000 ,  7.7450000, 0.000000,       0,       0,       0
 4.030, -0.0126000, 0.0078000 ,  9.6780000, 35.2173000, 34.9579000 , 34.3781000  , -39.6820000, -7.9110000 ,  7.5430000, 0.000000,       0,       0,       0
 4.040, -0.0138000, 0.0090000 ,  9.6780000, 35.2173000, 34.9503000 , 34.3781000  , -39.3740000, -7.9040000 ,  7.4270000, 0.000000,       0,       0,       0
 4.050, -0.0150000, 0.0126000 ,  9.6768000, 35.2249000, 34.9503000 , 34.3857000  , -39.3480000, -7.9070000 ,  8.0180000, 0.000000,       0,       0,       0
 4.060, -0.0161000, 0.0161000 ,  9.6768000, 35.2325000, 34.9426000 , 34.3781000  , -39.3340000, -8.1300000 ,  8.2470000, 0.000000,       0,       0,       0
 4.070, -0.0161000, 0.0173000 ,  9.6768000, 35.2402000, 34.9350000 , 34.3704000  , -39.4840000, -8.1520000 ,  7.6300000, 0.000000,       0,       0,       0
 4.080, -0.0150000, 0.0173000 ,  9.6768000, 35.2402000, 34.9350000 , 34.3704000  , -39.3610000, -7.9270000 ,  7.6490000, 0.000000,       0,       0,       0
 4.090, -0.0150000, 0.0150000 ,  9.6756000, 35.2478000, 34.9350000 , 34.3628000  , -39.4490000, -8.2610000 ,  7.7740000, 0.000000,       0,       0,       0
 4.100, -0.0150000, 0.0126000 ,  9.6780000, 35.2478000, 34.9426000 , 34.3628000  , -39.3240000, -7.7960000 ,  7.7440000, 0.000000,       0,       0,       0
 4.110, -0.0138000, 0.0102000 ,  9.6804000, 35.2478000, 34.9579000 , 34.3704000  , -39.6370000, -8.1170000 ,  7.7520000, 0.000000,       0,       0,       0
 4.120, -0.0138000, 0.0090000 ,  9.6816000, 35.2478000, 34.9808000 , 34.3704000  , -39.2580000, -7.8440000 ,  8.3680000, 0.000000,       0,       0,       0
 4.130, -0.0150000, 0.0090000 ,  9.6816000, 35.2402000, 35.0037000 , 34.3781000  , -39.3910000, -8.1580000 ,  8.7690000, 0.000000,       0,       0,       0
 4.140, -0.0150000, 0.0102000 ,  9.6816000, 35.2478000, 35.0266000 , 34.3781000  , -39.3310000, -8.2270000 ,  7.6730000, 0.000000,       0,       0,       0
 4.150, -0.0161000, 0.0114000 ,  9.6816000, 35.2478000, 35.0418000 , 34.3781000  , -39.2710000, -7.9150000 ,  7.5120000, 0.000000,       0,       0,       0
 4.160, -0.0173000, 0.0138000 ,  9.6804000, 35.2402000, 35.0571000 , 34.3781000  , -39.4280000, -8.0000000 ,  8.5370000, 0.000000,       0,       0,       0
 4.170, -0.0185000, 0.0161000 ,  9.6780000, 35.2402000, 35.0571000 , 34.3781000  , -39.2490000, -8.1600000 ,  8.0130000, 0.000000,       0,       0,       0
 4.180, -0.0197000, 0.0161000 ,  9.6780000, 35.2325000, 35.0342000 , 34.3704000  , -39.1650000, -8.2120000 ,  7.9620000, 0.000000,       0,       0,       0
 4.190, -0.0197000, 0.0161000 ,  9.6780000, 35.2325000, 35.0037000 , 34.3628000  , -39.7580000, -8.0750000 ,  8.1290000, 0.000000,       0,       0,       0
 4.200, -0.0185000, 0.0138000 ,  9.6804000, 35.2173000, 34.9655000 , 34.3704000  , -39.5550000, -8.0360000 ,  7.7840000, 0.000000,       0,       0,       0
 4.210, -0.0173000, 0.0114000 ,  9.6816000, 35.2020000, 34.9350000 , 34.3704000  , -39.7500000, -8.5110000 ,  8.2160000, 0.000000,       0,       0,       0
 4.220, -0.0161000, 0.0078000 ,  9.6816000, 35.1944000, 34.9121000 , 34.3704000  , -39.5510000, -7.9520000 ,  8.1280000, 0.000000,       0,       0,       0
 4.230, -0.0161000, 0.0066000 ,  9.6828000, 35.1868000, 34.8892000 , 34.3704000  , -39.3520000, -8.2990000 ,  7.7570000, 0.000000,       0,       0,       0
 4.240, -0.0185000, 0.0078000 ,  9.6816000, 35.1791000, 34.8816000 , 34.3704000  , -39.3600000, -8.1780000 ,  7.9140000, 0.000000,       0,       0,       0
 4.250, -0.0197000, 0.0126000 ,  9.6792000, 35.1715000, 34.8587000 , 34.3704000  , -39.5720000, -8.0250000 ,  7.4080000, 0.000000,       0,       0,       0
 4.260, -0.0209000, 0.0185000 ,  9.6768000, 35.1639000, 34.8282000 , 34.3704000  , -39.4610000, -8.0270000 ,  7.8020000, 0.000000,       0,       0,       0
 4.270, -0.0209000, 0.0209000 ,  9.6768000, 35.1639000, 34.8129000 , 34.3704000  , -39.2470000, -8.2210000 ,  7.3080000, 0.000000,       0,       0,       0
 4.280, -0.0197000, 0.0209000 ,  9.6780000, 35.1639000, 34.8053000 , 34.3704000  , -39.2720000, -8.0750000 ,  7.9380000, 0.000000,       0,       0,       0
 4.290, -0.0185000, 0.0173000 ,  9.6780000, 35.1562000, 34.8053000 , 34.3704000  , -39.2820000, -8.3940000 ,  7.5250000, 0.000000,       0,       0,       0
 4.300, -0.0185000, 0.0126000 ,  9.6780000, 35.1639000, 34.8129000 , 34.3704000  , -39.6000000, -7.8650000 ,  7.2370000, 0.000000,       0,       0,       0
 4.310, -0.0197000, 0.0090000 ,  9.6780000, 35.1715000, 34.8282000 , 34.3781000  , -39.5260000, -8.0500000 ,  7.3080000, 0.000000,       0,       0,       0
 4.320, -0.0197000, 0.0066000 ,  9.6780000, 35.1868000, 34.8434000 , 34.3781000  , -39.3170000, -8.1340000 ,  7.5360000, 0.000000,       0,       0,       0
 4.330, -0.0185000, 0.0102000 ,  9.6792000, 35.2249000, 34.8816000 , 34.3857000  , -39.1340000, -8.2020000 ,  8.0810000, 0.000000,       0,       0,       0
 4.340, -0.0185000, 0.0126000 ,  9.6780000, 35.2554000, 34.9121000 , 34.3933000  , -39.4300000, -7.9460000 ,  8.0310000, 0.000000,       0,       0,       0
 4.350, -0.0209000, 0.0126000 ,  9.6780000, 35.2936000, 34.9274000 , 34.4009000  , -39.4600000, -8.7030000 ,  7.3780000, 0.000000,       0,       0,       0
 4.360, -0.0221000, 0.0114000 ,  9.6804000, 35.3241000, 34.9350000 , 34.4162000  , -39.3350000, -8.1810000 ,  7.9780000, 0.000000,       0,       0,       0
 4.370, -0.0233000, 0.0126000 ,  9.6828000, 35.3622000, 34.9503000 , 34.4238000  , -39.2880000, -8.1630000 ,  8.1330000, 0.000000,       0,       0,       0
 4.380, -0.0233000, 0.0150000 ,  9.6816000, 35.4004000, 34.9731000 , 34.4315000  , -39.5480000, -8.2870000 ,  8.3960000, 0.000000,       0,       0,       0
 4.390, -0.0245000, 0.0197000 ,  9.6780000, 35.4309000, 34.9808000 , 34.4238000  , -39.4260000, -8.2210000 ,  8.4710000, 0.000000,       0,       0,       0
 4.400, -0.0245000, 0.0245000 ,  9.6756000, 35.4385000, 34.9808000 , 34.4238000  , -39.4310000, -8.0900000 ,  7.8840000, 0.000000,       0,       0,       0
 4.410, -0.0245000, 0.0257000 ,  9.6768000, 35.4309000, 34.9655000 , 34.4162000  , -39.6080000, -8.2250000 ,  7.5240000, 0.000000,       0,       0,       0
 4.420, -0.0245000, 0.0257000 ,  9.6768000, 35.4004000, 34.9426000 , 34.4162000  , -39.5630000, -8.4390000 ,  8.2570000, 0.000000,       0,       0,       0
 4.430, -0.0233000, 0.0245000 ,  9.6756000, 35.3470000, 34.9045000 , 34.4162000  , -39.5370000, -8.3120000 ,  7.1600000, 0.000000,       0,       0,       0
 4.440, -0.0221000, 0.0221000 ,  9.6744000, 35.3012000, 34.8740000 , 34.4162000  , -39.3180000, -7.9990000 ,  8.0200000, 0.000000,       0,       0,       0
 4.450, -0.0197000, 0.0209000 ,  9.6744000, 35.2631000, 34.8434000 , 34.4086000  , -39.3420000, -8.5620000 ,  7.6020000, 0.000000,       0,       0,       0
 4.460, -0.0197000, 0.0221000 ,  9.6768000, 35.2402000, 34.8206000 , 34.4009000  , -39.6460000, -8.2850000 ,  7.5900000, 0.000000,       0,       0,       0
 4.470, -0.0197000, 0.0209000 ,  9.6768000, 35.2173000, 34.8206000 , 34.3857000  , -39.2880000, -8.1630000 ,  7.5980000, 0.000000,       0,       0,       0
 4.480, -0.0197000, 0.0209000 ,  9.6768000, 35.2173000, 34.8282000 , 34.3704000  , -39.3780000, -8.3310000 ,  7.8110000, 0.000000,       0,       0,       0
 4.490, -0.0197000, 0.0209000 ,  9.6780000, 35.2249000, 34.8511000 , 34.3704000  , -39.4140000, -8.1680000 ,  8.4920000, 0.000000,       0,       0,       0
 4.500, -0.0209000, 0.0185000 ,  9.6792000, 35.2402000, 34.8969000 , 34.3781000  , -39.3370000, -7.8810000 ,  7.2360000, 0.000000,       0,       0,       0
 4.510, -0.0209000, 0.0185000 ,  9.6792000, 35.2783000, 34.9579000 , 34.3933000  , -39.5100000, -8.0410000 ,  7.4490000, 0.000000,       0,       0,       0
 4.520, -0.0209000, 0.0197000 ,  9.6816000, 35.3165000, 35.0189000 , 34.4162000  , -39.3190000, -8.0000000 ,  7.6100000, 0.000000,       0,       0,       0
 4.530, -0.0221000, 0.0209000 ,  9.6816000, 35.3546000, 35.0571000 , 34.4315000  , -39.5000000, -8.0820000 ,  7.7020000, 0.000000,       0,       0,       0
 4.540, -0.0233000, 0.0233000 ,  9.6828000, 35.4004000, 35.0723000 , 34.4391000  , -39.2680000, -8.0780000 ,  7.4190000, 0.000000,       0,       0,       0
 4.550, -0.0245000, 0.0233000 ,  9.6828000, 35.4385000, 35.0723000 , 34.4467000  , -39.5010000, -8.1330000 ,  7.9800000, 0.000000,       0,       0,       0
 4.560, -0.0257000, 0.0233000 ,  9.6828000, 35.4767000, 35.0571000 , 34.4391000  , -39.2650000, -8.0100000 ,  7.3230000, 0.000000,       0,       0,       0
 4.570, -0.0281000, 0.0197000 ,  9.6828000, 35.5301000, 35.0342000 , 34.4543000  , -39.2660000, -8.1830000 ,  8.1670000, 0.000000,       0,       0,       0
 4.580, -0.0604000, -0.0126000,  9.6840000, 35.5988000, 35.0189000 , 34.7672000  , -39.0810000, -8.2210000 ,  8.0960000, 0.000000,       0,       0,       0
 4.590, -0.0532000, -0.0030000,  9.6816000, 35.6750000, 35.0037000 , 35.4004000  , -38.8800000, -8.2490000 ,  7.9300000, 0.000000,       0,       0,       0
 4.600, -0.0389000, 0.0150000 ,  9.6792000, 35.7056000, 34.9808000 , 35.7132000  , -39.3330000, -8.3230000 ,  7.9780000, 0.000000,       0,       0,       0
 4.610, -0.0317000, 0.0281000 ,  9.6768000, 35.7132000, 34.9350000 , 35.8047000  , -39.3490000, -8.2670000 ,  7.6910000, 0.000000,       0,       0,       0
 4.620, -0.0185000, 0.0437000 ,  9.6768000, 35.6750000, 34.9045000 , 35.6674000  , -39.3430000, -8.2410000 ,  7.3540000, 0.000000,       0,       0,       0
 4.630, -0.0126000, 0.0496000 ,  9.6768000, 35.6140000, 34.8740000 , 35.3546000  , -39.2970000, -8.3430000 ,  7.6610000, 0.000000,       0,       0,       0
 4.640, -0.0114000, 0.0484000 ,  9.6768000, 35.5377000, 34.8511000 , 35.0113000  , -39.2350000, -8.3750000 ,  7.3320000, 0.000000,       0,       0,       0
 4.650, -0.0138000, 0.0437000 ,  9.6792000, 35.4691000, 34.8434000 , 34.7214000  , -39.1820000, -8.0560000 ,  8.3180000, 0.000000,       0,       0,       0
 4.660, -0.0173000, 0.0377000 ,  9.6792000, 35.4233000, 34.8434000 , 34.5001000  , -39.3670000, -8.1050000 ,  7.7850000, 0.000000,       0,       0,       0
 4.670, -0.0221000, 0.0341000 ,  9.6792000, 35.3775000, 34.8511000 , 34.3704000  , -39.0070000, -8.1310000 ,  7.6270000, 0.000000,       0,       0,       0
 4.680, -0.0257000, 0.0317000 ,  9.6768000, 35.3317000, 34.8511000 , 34.3094000  , -39.3390000, -7.8100000 ,  7.7940000, 0.000000,       0,       0,       0
 4.690, -0.0293000, 0.0305000 ,  9.6780000, 35.2936000, 34.8434000 , 34.2865000  , -39.0250000, -8.1650000 ,  7.6820000, 0.000000,       0,       0,       0
 4.700, -0.0329000, 0.0293000 ,  9.6780000, 35.2554000, 34.8358000 , 34.2941000  , -39.2720000, -8.3470000 ,  7.5420000, 0.000000,       0,       0,       0
 4.710, -0.0353000, 0.0281000 ,  9.6780000, 35.2325000, 34.8206000 , 34.3094000  , -39.3090000, -8.3410000 ,  7.7040000, 0.000000,       0,       0,       0
 4.720, -0.0353000, 0.0281000 ,  9.6780000, 35.2097000, 34.7977000 , 34.3323000  , -39.2850000, -8.1090000 ,  7.9030000, 0.000000,       0,       0,       0
 4.730, -0.0341000, 0.0269000 ,  9.6792000, 35.2020000, 34.7748000 , 34.3475000  , -39.0180000, -8.2440000 ,  7.7170000, 0.000000,       0,       0,       0
 4.740, -0.0329000, 0.0281000 ,  9.6792000, 35.2097000, 34.7595000 , 34.3552000  , -39.0060000, -8.1950000 ,  8.1270000, 0.000000,       0,       0,       0
 4.750, -0.0317000, 0.0305000 ,  9.6780000, 35.2173000, 34.7519000 , 34.3704000  , -39.0580000, -8.1550000 ,  8.4600000, 0.000000,       0,       0,       0
 4.760, -0.0317000, 0.0317000 ,  9.6780000, 35.2325000, 34.7595000 , 34.3781000  , -39.0790000, -8.2190000 ,  8.3510000, 0.000000,       0,       0,       0
 4.770, -0.0305000, 0.0317000 ,  9.6804000, 35.2631000, 34.7672000 , 34.3857000  , -39.2510000, -8.1180000 ,  7.8020000, 0.000000,       0,       0,       0
 4.780, -0.0317000, 0.0329000 ,  9.6828000, 35.3241000, 34.7977000 , 34.3933000  , -39.0900000, -8.0280000 ,  7.7410000, 0.000000,       0,       0,       0
 4.790, -0.0305000, 0.0329000 ,  9.6816000, 35.3775000, 34.8434000 , 34.4009000  , -38.9900000, -8.3800000 ,  7.8480000, 0.000000,       0,       0,       0
 4.800, -0.0305000, 0.0329000 ,  9.6804000, 35.3851000, 34.8816000 , 34.3933000  , -39.3040000, -8.3140000 ,  8.2410000, 0.000000,       0,       0,       0
 4.810, -0.0305000, 0.0329000 ,  9.6804000, 35.3699000, 34.9121000 , 34.3933000  , -39.1750000, -8.1490000 ,  8.1060000, 0.000000,       0,       0,       0
 4.820, -0.0305000, 0.0341000 ,  9.6816000, 35.3241000, 34.9197000 , 34.3933000  , -38.9940000, -7.9610000 ,  7.8020000, 0.000000,       0,       0,       0
 4.830, -0.0317000, 0.0341000 ,  9.6816000, 35.2783000, 34.9274000 , 34.3933000  , -39.2530000, -8.0990000 ,  7.7960000, 0.000000,       0,       0,       0
 4.840, -0.0329000, 0.0341000 ,  9.6804000, 35.2478000, 34.9350000 , 34.3933000  , -39.0520000, -8.0470000 ,  8.1670000, 0.000000,       0,       0,       0
 4.850, -0.0341000, 0.0329000 ,  9.6804000, 35.2402000, 34.9350000 , 34.3857000  , -39.3480000, -8.1150000 ,  7.9600000, 0.000000,       0,       0,       0
 4.860, -0.0329000, 0.0317000 ,  9.6804000, 35.2478000, 34.9426000 , 34.3857000  , -39.0050000, -8.2020000 ,  8.1540000, 0.000000,       0,       0,       0
 4.870, -0.0329000, 0.0317000 ,  9.6816000, 35.2631000, 34.9503000 , 34.3857000  , -39.0420000, -8.0510000 ,  8.0350000, 0.000000,       0,       0,       0
 4.880, -0.0317000, 0.0305000 ,  9.6804000, 35.3012000, 34.9503000 , 34.3857000  , -39.2770000, -8.2160000 ,  8.3540000, 0.000000,       0,       0,       0
 4.890, -0.0317000, 0.0305000 ,  9.6792000, 35.3317000, 34.9503000 , 34.3781000  , -39.2010000, -8.4050000 ,  8.1200000, 0.000000,       0,       0,       0
 4.900, -0.0317000, 0.0305000 ,  9.6792000, 35.3775000, 34.9503000 , 34.3781000  , -39.1960000, -8.0630000 ,  7.8320000, 0.000000,       0,       0,       0
 4.910, -0.0329000, 0.0317000 ,  9.6792000, 35.4233000, 34.9579000 , 34.3704000  , -38.9970000, -8.1500000 ,  7.6240000, 0.000000,       0,       0,       0
 4.920, -0.0341000, 0.0341000 ,  9.6780000, 35.4538000, 34.9579000 , 34.3552000  , -39.0740000, -8.1490000 ,  7.6640000, 0.000000,       0,       0,       0
 4.930, -0.0377000, 0.0341000 ,  9.6792000, 35.4767000, 34.9655000 , 34.3552000  , -39.4050000, -8.0140000 ,  8.2410000, 0.000000,       0,       0,       0
 4.940, -0.0389000, 0.0341000 ,  9.6816000, 35.4919000, 34.9884000 , 34.3475000  , -39.0160000, -7.9610000 ,  8.5100000, 0.000000,       0,       0,       0
 4.950, -0.0389000, 0.0353000 ,  9.6816000, 35.5301000, 35.0189000 , 34.3552000  , -39.0540000, -7.8270000 ,  8.2650000, 0.000000,       0,       0,       0
 4.960, -0.0377000, 0.0365000 ,  9.6828000, 35.5682000, 35.0647000 , 34.3628000  , -39.2820000, -8.0850000 ,  7.2870000, 0.000000,       0,       0,       0
 4.970, -0.0377000, 0.0365000 ,  9.6804000, 35.5988000, 35.1028000 , 34.3628000  , -39.5130000, -8.1870000 ,  8.2210000, 0.000000,       0,       0,       0
 4.980, -0.0365000, 0.0389000 ,  9.6768000, 35.5988000, 35.1181000 , 34.3704000  , -39.2510000, -7.9530000 ,  7.2350000, 0.000000,       0,       0,       0
 4.990, -0.0365000, 0.0401000 ,  9.6732000, 35.5682000, 35.1028000 , 34.3704000  , -39.2440000, -8.4410000 ,  7.6520000, 0.000000,       0,       0,       0
 5.000, -0.0365000, 0.0413000 ,  9.6720000, 35.5148000, 35.0571000 , 34.3628000  , -39.2090000, -8.0830000 ,  7.2930000, 0.000000,       0,       0,       0
 5.010, -0.0377000, 0.0413000 ,  9.6732000, 35.4538000, 35.0113000 , 34.3628000  , -39.4410000, -8.3020000 ,  8.0400000, 0.000000,       0,       0,       0
 5.020, -0.0389000, 0.0401000 ,  9.6756000, 35.4004000, 34.9579000 , 34.3628000  , -39.0800000, -8.1260000 ,  7.9280000, 0.000000,       0,       0,       0
 5.030, -0.0389000, 0.0401000 ,  9.6780000, 35.3622000, 34.9274000 , 34.3628000  , -39.4480000, -8.2950000 ,  8.3990000, 0.000000,       0,       0,       0
 5.040, -0.0401000, 0.0389000 ,  9.6816000, 35.3699000, 34.9274000 , 34.3628000  , -39.2340000, -7.8640000 ,  8.8170000, 0.000000,       0,       0,       0
 5.050, -0.0389000, 0.0377000 ,  9.6852000, 35.4156000, 34.9731000 , 34.3628000  , -39.1480000, -8.1380000 ,  8.5390000, 0.000000,       0,       0,       0
 5.060, -0.0377000, 0.0353000 ,  9.6864000, 35.5148000, 35.0647000 , 34.3704000  , -39.1890000, -8.1350000 ,  8.5500000, 0.000000,       0,       0,       0
 5.070, -0.0377000, 0.0377000 ,  9.6840000, 35.6140000, 35.1715000 , 34.3781000  , -39.1900000, -8.1930000 ,  7.8460000, 0.000000,       0,       0,       0
 5.080, -0.0389000, 0.0413000 ,  9.6768000, 35.6598000, 35.2325000 , 34.3781000  , -39.2310000, -8.0420000 ,  8.1130000, 0.000000,       0,       0,       0
 5.090, -0.0425000, 0.0449000 ,  9.6720000, 35.6369000, 35.2402000 , 34.3857000  , -39.1040000, -8.3290000 ,  8.4860000, 0.000000,       0,       0,       0
 5.100, -0.0449000, 0.0484000 ,  9.6672000, 35.5682000, 35.1868000 , 34.3857000  , -39.1510000, -8.2050000 ,  9.0690000, 0.000000,       0,       0,       0
 5.110, -0.0461000, 0.0508000 ,  9.6648000, 35.4538000, 35.0952000 , 34.3781000  , -39.1480000, -7.8420000 ,  8.1510000, 0.000000,       0,       0,       0
 5.120, -0.0484000, 0.0532000 ,  9.6648000, 35.3394000, 34.9884000 , 34.3781000  , -39.3340000, -7.7410000 ,  8.2620000, 0.000000,       0,       0,       0
 5.130, -0.0484000, 0.0532000 ,  9.6672000, 35.2402000, 34.8969000 , 34.3781000  , -39.2210000, -8.0430000 ,  8.5050000, 0.000000,       0,       0,       0
 5.140, -0.0484000, 0.0508000 ,  9.6708000, 35.1791000, 34.8282000 , 34.3704000  , -39.2570000, -7.8300000 ,  8.4020000, 0.000000,       0,       0,       0
 5.150, -0.0473000, 0.0461000 ,  9.6756000, 35.1562000, 34.8053000 , 34.3704000  , -39.3810000, -7.8890000 ,  8.7260000, 0.000000,       0,       0,       0
 5.160, -0.0473000, 0.0425000 ,  9.6792000, 35.1639000, 34.8129000 , 34.3704000  , -39.2240000, -8.0050000 ,  8.0660000, 0.000000,       0,       0,       0
 5.170, -0.0461000, 0.0413000 ,  9.6804000, 35.2020000, 34.8434000 , 34.3781000  , -39.4450000, -7.5790000 ,  8.4430000, 0.000000,       0,       0,       0
 5.180, -0.0473000, 0.0413000 ,  9.6792000, 35.2402000, 34.8740000 , 34.3781000  , -39.2220000, -7.8950000 ,  8.6110000, 0.000000,       0,       0,       0
 5.190, -0.0473000, 0.0437000 ,  9.6768000, 35.2554000, 34.8663000 , 34.3781000  , -39.3540000, -8.1930000 ,  7.7060000, 0.000000,       0,       0,       0
 5.200, -0.0473000, 0.0484000 ,  9.6732000, 35.2478000, 34.8358000 , 34.3781000  , -39.3220000, -8.1460000 ,  8.2230000, 0.000000,       0,       0,       0
 5.210, -0.0473000, 0.0508000 ,  9.6720000, 35.2249000, 34.7900000 , 34.3781000  , -39.3240000, -8.0610000 ,  8.3040000, 0.000000,       0,       0,       0
 5.220, -0.0461000, 0.0520000 ,  9.6720000, 35.1944000, 34.7443000 , 34.3781000  , -39.0670000, -7.9540000 ,  8.1710000, 0.000000,       0,       0,       0
 5.230, -0.0449000, 0.0508000 ,  9.6744000, 35.1639000, 34.7214000 , 34.3781000  , -39.2280000, -7.5980000 ,  8.7190000, 0.000000,       0,       0,       0
 5.240, -0.0437000, 0.0484000 ,  9.6768000, 35.1486000, 34.7137000 , 34.3781000  , -38.8360000, -7.8950000 ,  8.8790000, 0.000000,       0,       0,       0
 5.250, -0.0437000, 0.0461000 ,  9.6768000, 35.1486000, 34.7214000 , 34.3781000  , -39.0750000, -7.9910000 ,  8.2430000, 0.000000,       0,       0,       0
 5.260, -0.0437000, 0.0449000 ,  9.6768000, 35.1562000, 34.7366000 , 34.3781000  , -39.0950000, -7.7470000 ,  8.0310000, 0.000000,       0,       0,       0
 5.270, -0.0449000, 0.0449000 ,  9.6756000, 35.1562000, 34.7519000 , 34.3704000  , -39.2770000, -7.9210000 ,  8.3260000, 0.000000,       0,       0,       0
 5.280, -0.0461000, 0.0473000 ,  9.6732000, 35.1410000, 34.7443000 , 34.3781000  , -39.1090000, -7.9530000 ,  8.0100000, 0.000000,       0,       0,       0
 5.290, -0.0461000, 0.0484000 ,  9.6720000, 35.1181000, 34.7290000 , 34.3781000  , -39.4430000, -8.0680000 ,  8.1320000, 0.000000,       0,       0,       0
 5.300, -0.0449000, 0.0484000 ,  9.6720000, 35.1028000, 34.7137000 , 34.3781000  , -39.3390000, -7.9770000 ,  8.5950000, 0.000000,       0,       0,       0
 5.310, -0.0449000, 0.0484000 ,  9.6732000, 35.0876000, 34.6909000 , 34.3781000  , -39.0730000, -7.8960000 ,  8.3250000, 0.000000,       0,       0,       0
 5.320, -0.0437000, 0.0473000 ,  9.6744000, 35.0876000, 34.6756000 , 34.3781000  , -39.2720000, -8.1770000 ,  7.4840000, 0.000000,       0,       0,       0
 5.330, -0.0437000, 0.0449000 ,  9.6768000, 35.1028000, 34.6909000 , 34.3704000  , -39.4470000, -8.0350000 ,  8.1370000, 0.000000,       0,       0,       0
 5.340, -0.0425000, 0.0425000 ,  9.6792000, 35.1410000, 34.7290000 , 34.3781000  , -39.1640000, -7.8440000 ,  7.8550000, 0.000000,       0,       0,       0
 5.350, -0.0425000, 0.0425000 ,  9.6804000, 35.1868000, 34.7824000 , 34.3781000  , -39.3070000, -8.2260000 ,  7.6000000, 0.000000,       0,       0,       0
 5.360, -0.0437000, 0.0425000 ,  9.6780000, 35.2249000, 34.8282000 , 34.3857000  , -38.9240000, -8.0480000 ,  8.1830000, 0.000000,       0,       0,       0
 5.370, -0.0437000, 0.0449000 ,  9.6744000, 35.2478000, 34.8434000 , 34.3857000  , -39.0590000, -8.0110000 ,  7.8590000, 0.000000,       0,       0,       0
 5.380, -0.0425000, 0.0473000 ,  9.6708000, 35.2402000, 34.8358000 , 34.3857000  , -39.1650000, -7.9960000 ,  7.8160000, 0.000000,       0,       0,       0
 5.390, -0.0413000, 0.0484000 ,  9.6696000, 35.2249000, 34.8206000 , 34.3857000  , -39.2380000, -7.9890000 ,  7.8610000, 0.000000,       0,       0,       0
 5.400, -0.0401000, 0.0484000 ,  9.6696000, 35.1944000, 34.8053000 , 34.3781000  , -39.2550000, -8.1380000 ,  7.5990000, 0.000000,       0,       0,       0
 5.410, -0.0401000, 0.0484000 ,  9.6708000, 35.1715000, 34.7900000 , 34.3781000  , -39.1200000, -8.2100000 ,  8.2150000, 0.000000,       0,       0,       0
 5.420, -0.0401000, 0.0473000 ,  9.6732000, 35.1639000, 34.7900000 , 34.3704000  , -38.8800000, -7.9050000 ,  7.8900000, 0.000000,       0,       0,       0
 5.430, -0.0413000, 0.0461000 ,  9.6744000, 35.1639000, 34.7900000 , 34.3704000  , -39.2160000, -8.1340000 ,  8.3010000, 0.000000,       0,       0,       0
 5.440, -0.0425000, 0.0437000 ,  9.6744000, 35.1791000, 34.8053000 , 34.3628000  , -39.1360000, -8.1900000 ,  7.7200000, 0.000000,       0,       0,       0
 5.450, -0.0437000, 0.0449000 ,  9.6732000, 35.1791000, 34.8206000 , 34.3628000  , -38.9140000, -8.3700000 ,  7.6360000, 0.000000,       0,       0,       0
 5.460, -0.0437000, 0.0473000 ,  9.6732000, 35.1791000, 34.8282000 , 34.3628000  , -39.1040000, -8.0150000 ,  7.5760000, 0.000000,       0,       0,       0
 5.470, -0.0437000, 0.0484000 ,  9.6732000, 35.1791000, 34.8282000 , 34.3552000  , -39.0180000, -8.0070000 ,  7.8170000, 0.000000,       0,       0,       0
 5.480, -0.0437000, 0.0496000 ,  9.6756000, 35.1791000, 34.8282000 , 34.3552000  , -38.9190000, -8.3010000 ,  8.2150000, 0.000000,       0,       0,       0
 5.490, -0.0437000, 0.0520000 ,  9.6756000, 35.1791000, 34.8206000 , 34.3552000  , -39.1450000, -8.1330000 ,  7.9180000, 0.000000,       0,       0,       0
 5.500, -0.0437000, 0.0520000 ,  9.6732000, 35.1791000, 34.8129000 , 34.3628000  , -38.7770000, -7.9590000 ,  8.0650000, 0.000000,       0,       0,       0
 5.510, -0.0437000, 0.0508000 ,  9.6732000, 35.1868000, 34.8129000 , 34.3552000  , -39.0200000, -8.1870000 ,  7.8970000, 0.000000,       0,       0,       0
 5.520, -0.0449000, 0.0484000 ,  9.6744000, 35.1868000, 34.8053000 , 34.3552000  , -38.6440000, -8.2130000 ,  7.9230000, 0.000000,       0,       0,       0
 5.530, -0.0461000, 0.0473000 ,  9.6708000, 35.1791000, 34.7900000 , 34.3628000  , -38.9100000, -8.1930000 ,  7.4640000, 0.000000,       0,       0,       0
 5.540, -0.0461000, 0.0484000 ,  9.6684000, 35.1105000, 34.7366000 , 34.3704000  , -38.9630000, -8.1450000 ,  8.0190000, 0.000000,       0,       0,       0
 5.550, -0.0449000, 0.0484000 ,  9.6684000, 35.0723000, 34.7137000 , 34.3704000  , -39.2590000, -8.3480000 ,  7.9870000, 0.000000,       0,       0,       0
 5.560, -0.0425000, 0.0484000 ,  9.6696000, 35.0418000, 34.7137000 , 34.3704000  , -38.9010000, -8.2990000 ,  7.6270000, 0.000000,       0,       0,       0
 5.570, -0.0413000, 0.0473000 ,  9.6732000, 35.0342000, 34.7366000 , 34.3781000  , -38.8710000, -8.0230000 ,  8.4720000, 0.000000,       0,       0,       0
 5.580, -0.0401000, 0.0461000 ,  9.6780000, 35.0647000, 34.7900000 , 34.3704000  , -38.7510000, -8.0480000 ,  7.5450000, 0.000000,       0,       0,       0
 5.590, -0.0389000, 0.0449000 ,  9.6828000, 35.1562000, 34.8740000 , 34.3704000  , -38.8430000, -7.9170000 ,  7.4580000, 0.000000,       0,       0,       0
 5.600, -0.0377000, 0.0437000 ,  9.6828000, 35.2936000, 34.9960000 , 34.3628000  , -38.8720000, -8.0260000 ,  7.7770000, 0.000000,       0,       0,       0
 5.610, -0.0401000, 0.0449000 ,  9.6780000, 35.4233000, 35.0952000 , 34.3552000  , -38.8650000, -7.9310000 ,  7.9530000, 0.000000,       0,       0,       0
 5.620, -0.0425000, 0.0473000 ,  9.6708000, 35.4691000, 35.1410000 , 34.3475000  , -38.8640000, -8.1400000 ,  8.6730000, 0.000000,       0,       0,       0
 5.630, -0.0437000, 0.0496000 ,  9.6684000, 35.4614000, 35.1486000 , 34.3475000  , -38.6880000, -8.1210000 ,  7.8930000, 0.000000,       0,       0,       0
 5.640, -0.0449000, 0.0520000 ,  9.6672000, 35.4156000, 35.1181000 , 34.3475000  , -39.2640000, -7.9150000 ,  8.5320000, 0.000000,       0,       0,       0
 5.650, -0.0461000, 0.0532000 ,  9.6672000, 35.3546000, 35.0571000 , 34.3475000  , -39.2100000, -7.9700000 ,  7.8410000, 0.000000,       0,       0,       0
 5.660, -0.0484000, 0.0556000 ,  9.6648000, 35.2936000, 34.9808000 , 34.3475000  , -38.8000000, -7.9750000 ,  7.4010000, 0.000000,       0,       0,       0
 5.670, -0.0496000, 0.0556000 ,  9.6636000, 35.2249000, 34.9045000 , 34.3475000  , -38.7230000, -7.8830000 ,  7.6360000, 0.000000,       0,       0,       0
 5.680, -0.0496000, 0.0544000 ,  9.6636000, 35.1715000, 34.8282000 , 34.3552000  , -38.8660000, -8.2440000 ,  8.0200000, 0.000000,       0,       0,       0
 5.690, -0.0496000, 0.0520000 ,  9.6660000, 35.1334000, 34.7672000 , 34.3552000  , -38.6190000, -8.0860000 ,  7.7770000, 0.000000,       0,       0,       0
 5.700, -0.0484000, 0.0496000 ,  9.6672000, 35.1181000, 34.7290000 , 34.3552000  , -38.7660000, -8.0700000 ,  7.7460000, 0.000000,       0,       0,       0
 5.710, -0.0496000, 0.0484000 ,  9.6672000, 35.1257000, 34.7137000 , 34.3552000  , -39.1740000, -8.2720000 ,  8.1140000, 0.000000,       0,       0,       0
 5.720, -0.0484000, 0.0473000 ,  9.6684000, 35.1410000, 34.7137000 , 34.3628000  , -38.6580000, -8.2420000 ,  7.6110000, 0.000000,       0,       0,       0
 5.730, -0.0484000, 0.0461000 ,  9.6684000, 35.1562000, 34.7137000 , 34.3628000  , -38.7320000, -8.1950000 ,  8.3890000, 0.000000,       0,       0,       0
 5.740, -0.0496000, 0.0473000 ,  9.6684000, 35.1715000, 34.7214000 , 34.3628000  , -38.6790000, -8.1990000 ,  8.3740000, 0.000000,       0,       0,       0
 5.750, -0.0508000, 0.0496000 ,  9.6612000, 35.1410000, 34.6909000 , 34.3628000  , -39.0300000, -8.0250000 ,  8.3020000, 0.000000,       0,       0,       0
 5.760, -0.0508000, 0.0520000 ,  9.6624000, 35.0723000, 34.6375000 , 34.3628000  , -38.6630000, -8.3550000 ,  8.4070000, 0.000000,       0,       0,       0
 5.770, -0.0508000, 0.0520000 ,  9.6648000, 35.0113000, 34.5840000 , 34.3628000  , -38.7770000, -8.4190000 ,  7.6180000, 0.000000,       0,       0,       0
 5.780, -0.0484000, 0.0496000 ,  9.6696000, 34.9884000, 34.5535000 , 34.3628000  , -38.5860000, -8.2420000 ,  7.5570000, 0.000000,       0,       0,       0
 5.790, -0.0473000, 0.0473000 ,  9.6720000, 35.0037000, 34.5535000 , 34.3628000  , -38.8690000, -8.1590000 ,  8.1620000, 0.000000,       0,       0,       0
 5.800, -0.0449000, 0.0461000 ,  9.6720000, 35.0418000, 34.5764000 , 34.3552000  , -38.7190000, -8.1820000 ,  8.2610000, 0.000000,       0,       0,       0
 5.810, -0.0437000, 0.0461000 ,  9.6720000, 35.0876000, 34.5993000 , 34.3475000  , -38.7620000, -8.2960000 ,  8.5670000, 0.000000,       0,       0,       0
 5.820, -0.0437000, 0.0461000 ,  9.6708000, 35.1257000, 34.6222000 , 34.3552000  , -38.6030000, -8.1290000 ,  8.0820000, 0.000000,       0,       0,       0
 5.830, -0.0449000, 0.0473000 ,  9.6684000, 35.1334000, 34.6298000 , 34.3552000  , -38.6700000, -8.5630000 ,  7.4680000, 0.000000,       0,       0,       0
 5.840, -0.0461000, 0.0484000 ,  9.6648000, 35.1257000, 34.6222000 , 34.3475000  , -38.8690000, -8.4040000 ,  7.3350000, 0.000000,       0,       0,       0
 5.850, -0.0473000, 0.0508000 ,  9.6612000, 35.0800000, 34.5917000 , 34.3475000  , -38.8180000, -8.1010000 ,  7.3750000, 0.000000,       0,       0,       0
 5.860, -0.0473000, 0.0520000 ,  9.6600000, 35.0113000, 34.5459000 , 34.3323000  , -38.8650000, -8.2120000 ,  7.3730000, 0.000000,       0,       0,       0
 5.870, -0.0461000, 0.0520000 ,  9.6612000, 34.9350000, 34.5001000 , 34.3094000  , -38.8120000, -8.1950000 ,  8.6240000, 0.000000,       0,       0,       0
 5.880, -0.0449000, 0.0508000 ,  9.6624000, 34.8511000, 34.4467000 , 34.2865000  , -38.7530000, -8.4950000 ,  7.8480000, 0.000000,       0,       0,       0
 5.890, -0.0425000, 0.0496000 ,  9.6636000, 34.7824000, 34.4162000 , 34.2560000  , -38.7690000, -8.4910000 ,  7.8140000, 0.000000,       0,       0,       0
 5.900, -0.0389000, 0.0508000 ,  9.6660000, 34.7366000, 34.4009000 , 34.2178000  , -38.7230000, -8.0270000 ,  7.7400000, 0.000000,       0,       0,       0
 5.910, -0.0305000, 0.0592000 ,  9.6672000, 34.7061000, 34.4086000 , 34.0958000  , -38.8660000, -8.0700000 ,  7.9110000, 0.000000,       0,       0,       0
 5.920, -0.0269000, 0.0652000 ,  9.6672000, 34.6756000, 34.4238000 , 33.8211000  , -38.8900000, -8.1870000 ,  7.9330000, 0.000000,       0,       0,       0
 5.930, -0.0209000, 0.0736000 ,  9.6684000, 34.6451000, 34.4391000 , 33.4167000  , -39.1130000, -8.0240000 ,  7.8810000, 0.000000,       0,       0,       0
 5.940, -0.0114000, 0.0831000 ,  9.6696000, 34.6298000, 34.4925000 , 32.8064000  , -39.0320000, -8.0220000 ,  7.9410000, 0.000000,       0,       0,       0
 5.950, -0.0090000, 0.0831000 ,  9.6696000, 34.6451000, 34.5612000 , 32.0892000  , -38.6800000, -8.3860000 ,  8.1910000, 0.000000,       0,       0,       0
 5.960, -0.0066000, 0.0843000 ,  9.6684000, 34.6680000, 34.6222000 , 31.3797000  , -38.7370000, -8.1490000 ,  7.9960000, 0.000000,       0,       0,       0
 5.970, 0.0090000 , 0.1071000 ,  9.6708000, 34.6985000, 34.6756000 , 30.4794000  , -38.8890000, -7.9930000 ,  7.7530000, 0.000000,       0,       0,       0
 5.980, 0.0616000 , 0.1693000 ,  9.6720000, 34.7672000, 34.7672000 , 28.7628000  , -38.7270000, -7.9240000 ,  7.6710000, 0.000000,       0,       0,       0
 5.990, 0.0987000 , 0.2076000 ,  9.6708000, 34.8129000, 34.9045000 , 26.1459000  , -38.6900000, -7.7640000 ,  7.3210000, 0.000000,       0,       0,       0
 6.000, 0.0951000 , 0.2004000 ,  9.6660000, 34.8206000, 35.0266000 , 23.1934000  , -38.6190000, -7.7060000 ,  8.4800000, 0.000000,       0,       0,       0
 6.010, 0.0712000 , 0.1645000 ,  9.6624000, 34.7977000, 35.1181000 , 20.5994000  , -38.7990000, -7.4990000 ,  8.4410000, 0.000000,       0,       0,       0
 6.020, 0.0401000 , 0.1226000 ,  9.6612000, 34.7595000, 35.1639000 , 18.6615000  , -38.9270000, -7.5780000 ,  8.1700000, 0.000000,       0,       0,       0
 6.030, 0.0197000 , 0.0939000 ,  9.6636000, 34.7290000, 35.1944000 , 17.3569000  , -38.5800000, -7.4740000 ,  7.7970000, 0.000000,       0,       0,       0
 6.040, 0.0221000 , 0.0939000 ,  9.6648000, 34.7137000, 35.2173000 , 16.2811000  , -39.0900000, -7.6200000 ,  8.1670000, 0.000000,       0,       0,       0
 6.050, 0.0377000 , 0.1119000 ,  9.6636000, 34.6985000, 35.2554000 , 14.9841000  , -38.9590000, -7.6670000 ,  7.9890000, 0.000000,       0,       0,       0
 6.060, 0.0508000 , 0.1262000 ,  9.6636000, 34.6909000, 35.3088000 , 13.3514000  , -38.7730000, -7.7390000 ,  8.1820000, 0.000000,       0,       0,       0
 6.070, 0.0449000 , 0.1154000 ,  9.6636000, 34.6756000, 35.3699000 , 11.6577000  , -38.7950000, -7.5010000 ,  7.2820000, 0.000000,       0,       0,       0
 6.080, 0.0221000 , 0.0855000 ,  9.6648000, 34.6756000, 35.4156000 , 10.3607000  , -39.0720000, -7.0840000 ,  7.7130000, 0.000000,       0,       0,       0
 6.090, -0.0006000, 0.0580000 ,  9.6648000, 34.6985000, 35.4385000 , 9.6130000   , -38.9310000, -7.2580000 ,  7.5940000, 0.000000,       0,       0,       0
 6.100, -0.0138000, 0.0413000 ,  9.6660000, 34.7290000, 35.4462000 , 9.2697000   , -38.8840000, -6.9090000 ,  7.8230000, 0.000000,       0,       0,       0
 6.110, -0.0197000, 0.0365000 ,  9.6660000, 34.7672000, 35.4385000 , 9.1248000   , -39.1880000, -6.9550000 ,  8.1080000, 0.000000,       0,       0,       0
 6.120, -0.0114000, 0.0461000 ,  9.6660000, 34.8053000, 35.4233000 , 8.9493000   , -38.9220000, -6.8540000 ,  7.8440000, 0.000000,       0,       0,       0
 6.130, 0.0042000 , 0.0652000 ,  9.6648000, 34.8358000, 35.4080000 , 8.5449000   , -38.8680000, -6.9940000 ,  7.8930000, 0.000000,       0,       0,       0
 6.140, 0.0269000 , 0.0939000 ,  9.6636000, 34.8434000, 35.4080000 , 7.7286000   , -38.7860000, -6.5880000 ,  8.2390000, 0.000000,       0,       0,       0
 6.150, 0.0484000 , 0.1190000 ,  9.6624000, 34.8282000, 35.4385000 , 6.4163000   , -38.7830000, -6.3620000 ,  8.2290000, 0.000000,       0,       0,       0
 6.160, 0.0580000 , 0.1274000 ,  9.6612000, 34.7900000, 35.4843000 , 4.7684000   , -39.1240000, -6.6030000 ,  7.9400000, 0.000000,       0,       0,       0
 6.170, 0.0473000 , 0.1154000 ,  9.6588000, 34.7443000, 35.5301000 , 3.1586000   , -39.2780000, -6.4640000 ,  7.6300000, 0.000000,       0,       0,       0
 6.180, 0.0293000 , 0.0951000 ,  9.6576000, 34.6756000, 35.5453000 , 1.8616000   , -38.9990000, -6.2910000 ,  8.8560000, 0.000000,       0,       0,       0
 6.190, 0.0018000 , 0.0616000 ,  9.6624000, 34.6146000, 35.5301000 , 0.6638000   , -39.2190000, -6.1020000 ,  8.0000000, 0.000000,       0,       0,       0
 6.200, -0.0042000, 0.0508000 ,  9.6660000, 34.6146000, 35.5072000 , 0.2289000   , -39.2520000, -6.1000000 ,  7.6850000, 0.000000,       0,       0,       0
 6.210, 0.0054000 , 0.0544000 ,  9.6684000, 34.6298000, 35.5072000 , -0.1984000  , -39.2920000, -5.8880000 ,  8.2090000, 0.000000,       0,       0,       0
 6.220, 0.0233000 , 0.0676000 ,  9.6684000, 34.6603000, 35.5148000 , -0.8698000  , -39.1990000, -5.7520000 ,  8.8260000, 0.000000,       0,       0,       0
 6.230, 0.0508000 , 0.0903000 ,  9.6672000, 34.6756000, 35.5301000 , -1.9531000  , -39.1510000, -5.6100000 ,  8.1810000, 0.000000,       0,       0,       0
 6.240, 0.0807000 , 0.1226000 ,  9.6672000, 34.6832000, 35.5606000 , -3.5477000  , -39.4170000, -5.2290000 ,  8.7410000, 0.000000,       0,       0,       0
 6.250, 0.1023000 , 0.1477000 ,  9.6648000, 34.6680000, 35.6140000 , -5.6686000  , -39.5350000, -5.0610000 ,  9.2470000, 0.000000,       0,       0,       0
 6.260, 0.0987000 , 0.1430000 ,  9.6624000, 34.6375000, 35.6827000 , -7.9269000  , -39.1060000, -5.0120000 ,  8.5790000, 0.000000,       0,       0,       0
 6.270, 0.0819000 , 0.1190000 ,  9.6624000, 34.5993000, 35.7361000 , -9.8648000  , -39.4210000, -4.8810000 ,  8.1750000, 0.000000,       0,       0,       0
 6.280, 0.0736000 , 0.0987000 ,  9.6636000, 34.5612000, 35.7819000 , -11.4212000 , -39.6480000, -4.6490000 ,  9.0310000, 0.000000,       0,       0,       0
 6.290, 0.0772000 , 0.0879000 ,  9.6660000, 34.5459000, 35.8276000 , -12.8250000 , -39.6030000, -4.5390000 ,  8.9610000, 0.000000,       0,       0,       0
 6.300, 0.0855000 , 0.0807000 ,  9.6636000, 34.5459000, 35.8658000 , -14.2288000 , -39.4930000, -4.4430000 ,  8.1820000, 0.000000,       0,       0,       0
 6.310, 0.0987000 , 0.0760000 ,  9.6612000, 34.5306000, 35.8887000 , -15.6708000 , -39.3850000, -4.1790000 ,  8.7590000, 0.000000,       0,       0,       0
 6.320, 0.1178000 , 0.0748000 ,  9.6624000, 34.5230000, 35.9039000 , -17.2424000 , -39.5060000, -3.9090000 ,  8.8240000, 0.000000,       0,       0,       0
 6.330, 0.1310000 , 0.0748000 ,  9.6612000, 34.5306000, 35.9039000 , -18.9667000 , -39.6250000, -4.1230000 ,  8.3810000, 0.000000,       0,       0,       0
 6.340, 0.1142000 , 0.0760000 ,  9.6588000, 34.5306000, 35.8810000 , -20.6299000 , -39.6480000, -3.6360000 ,  8.7880000, 0.000000,       0,       0,       0
 6.350, 0.0676000 , 0.0700000 ,  9.6564000, 34.5230000, 35.8505000 , -21.9269000 , -39.5920000, -3.6590000 ,  7.9150000, 0.000000,       0,       0,       0
 6.360, 0.0078000 , 0.0484000 ,  9.6564000, 34.5154000, 35.8047000 , -22.4838000 , -39.7120000, -3.5280000 ,  8.0180000, 0.000000,       0,       0,       0
 6.370, -0.0389000, 0.0269000 ,  9.6588000, 34.5001000, 35.7437000 , -22.2549000 , -39.8010000, -3.1640000 ,  8.3580000, 0.000000,       0,       0,       0
 6.380, -0.0592000, 0.0054000 ,  9.6624000, 34.4925000, 35.7056000 , -21.5302000 , -39.3830000, -2.8800000 ,  8.7610000, 0.000000,       0,       0,       0
 6.390, -0.0544000, -0.0066000,  9.6636000, 34.5001000, 35.6827000 , -20.6451000 , -39.5090000, -2.6990000 ,  8.8260000, 0.000000,       0,       0,       0
 6.400, -0.0233000, -0.0138000,  9.6636000, 34.5078000, 35.6903000 , -19.9585000 , -39.5750000, -2.6870000 ,  8.1570000, 0.000000,       0,       0,       0
 6.410, 0.0257000 , -0.0150000,  9.6612000, 34.5078000, 35.7056000 , -19.7220000 , -39.7000000, -2.8320000 ,  8.1650000, 0.000000,       0,       0,       0
 6.420, 0.0712000 , -0.0138000,  9.6612000, 34.5078000, 35.7437000 , -20.0043000 , -39.3810000, -2.4970000 ,  9.0960000, 0.000000,       0,       0,       0
 6.430, 0.0891000 , -0.0090000,  9.6588000, 34.5078000, 35.7971000 , -20.6070000 , -39.1910000, -2.4930000 ,  8.7570000, 0.000000,       0,       0,       0
 6.440, 0.0891000 , 0.0090000 ,  9.6576000, 34.5001000, 35.8429000 , -21.2936000 , -39.5340000, -1.9050000 ,  9.0410000, 0.000000,       0,       0,       0
 6.450, 0.0819000 , 0.0437000 ,  9.6576000, 34.4849000, 35.8887000 , -22.0108000 , -39.5850000, -1.8680000 ,  9.3300000, 0.000000,       0,       0,       0
 6.460, 0.0676000 , 0.0796000 ,  9.6612000, 34.4696000, 35.9192000 , -22.7661000 , -39.7910000, -1.4220000 ,  9.4760000, 0.000000,       0,       0,       0
 6.470, 0.0389000 , 0.0879000 ,  9.6636000, 34.4772000, 35.9421000 , -23.3994000 , -39.6760000, -1.5150000 ,  8.8150000, 0.000000,       0,       0,       0
 6.480, 0.0078000 , 0.0676000 ,  9.6648000, 34.5001000, 35.9421000 , -23.6359000 , -39.7370000, -1.0870000 ,  8.5260000, 0.000000,       0,       0,       0
 6.490, -0.0090000, 0.0305000 ,  9.6684000, 34.5459000, 35.9268000 , -23.4604000 , -39.2910000, -0.9550000 ,  8.4410000, 0.000000,       0,       0,       0
 6.500, -0.0233000, -0.0138000,  9.6684000, 34.6146000, 35.8963000 , -22.8653000 , -39.6390000, -1.0820000 ,  8.8950000, 0.000000,       0,       0,       0
 6.510, -0.0377000, -0.0449000,  9.6660000, 34.6909000, 35.8276000 , -21.8582000 , -39.7420000, -1.0570000 ,  9.3670000, 0.000000,       0,       0,       0
 6.520, -0.0353000, -0.0520000,  9.6624000, 34.7519000, 35.7361000 , -20.6299000 , -39.6150000, -0.8710000 ,  8.8880000, 0.000000,       0,       0,       0
 6.530, -0.0150000, -0.0173000,  9.6600000, 34.7824000, 35.6445000 , -19.5847000 , -39.8080000, -0.6480000 ,  8.1460000, 0.000000,       0,       0,       0
 6.540, 0.0209000 , 0.0520000 ,  9.6600000, 34.7900000, 35.5911000 , -19.1574000 , -39.4480000, -0.3080000 ,  8.3750000, 0.000000,       0,       0,       0
 6.550, 0.0508000 , 0.1166000 ,  9.6624000, 34.7748000, 35.5911000 , -19.5770000 , -39.9170000, -0.0090000 ,  8.6970000, 0.000000,       0,       0,       0
 6.560, 0.0592000 , 0.1346000 ,  9.6648000, 34.7519000, 35.6293000 , -20.5154000 , -39.7540000, -0.1900000 ,  9.1070000, 0.000000,       0,       0,       0
 6.570, 0.0425000 , 0.0915000 ,  9.6660000, 34.7443000, 35.6827000 , -21.3165000 , -39.6580000, 0.1570000  ,  9.1980000, 0.000000,       0,       0,       0
 6.580, 0.0185000 , 0.0126000 ,  9.6636000, 34.7061000, 35.6979000 , -21.4691000 , -39.8590000, 0.3880000  ,  9.4230000, 0.000000,       0,       0,       0
 6.590, 0.0078000 , -0.0568000,  9.6612000, 34.6527000, 35.6827000 , -20.9198000 , -39.5110000, 0.1180000  ,  9.3210000, 0.000000,       0,       0,       0
 6.600, 0.0245000 , -0.0891000,  9.6588000, 34.5917000, 35.6674000 , -20.1035000 , -39.6330000, 0.5990000  ,  9.0250000, 0.000000,       0,       0,       0
 6.610, 0.0604000 , -0.0819000,  9.6576000, 34.5306000, 35.6598000 , -19.5465000 , -39.5840000, 0.6770000  ,  9.4880000, 0.000000,       0,       0,       0
 6.620, 0.0879000 , -0.0496000,  9.6576000, 34.4772000, 35.6674000 , -19.5007000 , -39.5830000, 0.8930000  ,  8.9190000, 0.000000,       0,       0,       0
 6.630, 0.1023000 , -0.0054000,  9.6576000, 34.4238000, 35.6750000 , -19.9509000 , -39.7980000, 1.1100000  ,  8.4110000, 0.000000,       0,       0,       0
 6.640, 0.1083000 , 0.0317000 ,  9.6600000, 34.3781000, 35.7056000 , -20.7825000 , -39.4090000, 1.6520000  ,  8.7630000, 0.000000,       0,       0,       0
 6.650, 0.1107000 , 0.0437000 ,  9.6636000, 34.3552000, 35.7513000 , -21.7743000 , -39.7620000, 1.4190000  ,  8.9670000, 0.000000,       0,       0,       0
 6.660, 0.1130000 , 0.0496000 ,  9.6648000, 34.3552000, 35.8047000 , -22.6822000 , -39.5950000, 1.6160000  ,  8.8070000, 0.000000,       0,       0,       0
 6.670, 0.1274000 , 0.0640000 ,  9.6660000, 34.3628000, 35.8810000 , -23.5672000 , -39.6500000, 1.7400000  ,  9.0540000, 0.000000,       0,       0,       0
 6.680, 0.1501000 , 0.0879000 ,  9.6636000, 34.3628000, 35.9650000 , -24.5743000 , -39.5910000, 2.1500000  ,  8.8290000, 0.000000,       0,       0,       0
 6.690, 0.1537000 , 0.1107000 ,  9.6612000, 34.3628000, 36.0489000 , -25.7492000 , -39.5590000, 2.1690000  ,  9.6440000, 0.000000,       0,       0,       0
 6.700, 0.1142000 , 0.1382000 ,  9.6600000, 34.3628000, 36.1023000 , -26.8021000 , -39.7960000, 2.3910000  ,  9.3270000, 0.000000,       0,       0,       0
 6.710, 0.0508000 , 0.1681000 ,  9.6612000, 34.3475000, 36.1252000 , -27.4582000 , -39.7730000, 2.8030000  ,  9.3320000, 0.000000,       0,       0,       0
 6.720, 0.0090000 , 0.2111000 ,  9.6600000, 34.3246000, 36.1099000 , -27.7939000 , -39.5010000, 2.9680000  ,  9.4710000, 0.000000,       0,       0,       0
 6.730, 0.0269000 , 0.2602000 ,  9.6612000, 34.2941000, 36.0870000 , -28.3127000 , -39.3990000, 3.4290000  ,  9.1970000, 0.000000,       0,       0,       0
 6.740, 0.1023000 , 0.2997000 ,  9.6648000, 34.2636000, 36.0947000 , -29.5639000 , -39.5830000, 3.0870000  ,  9.1630000, 0.000000,       0,       0,       0
 6.750, 0.1920000 , 0.3104000 ,  9.6672000, 34.2484000, 36.1481000 , -31.8069000 , -39.3660000, 3.6150000  ,  9.1580000, 0.000000,       0,       0,       0
 6.760, 0.2399000 , 0.2662000 ,  9.6672000, 34.2255000, 36.2320000 , -34.5917000 , -39.4730000, 3.5920000  ,  9.0390000, 0.000000,       0,       0,       0
 6.770, 0.2052000 , 0.1669000 ,  9.6648000, 34.2102000, 36.2854000 , -36.9186000 , -39.4090000, 4.0170000  ,  9.6240000, 0.000000,       0,       0,       0
 6.780, 0.1023000 , 0.0473000 ,  9.6636000, 34.1949000, 36.2778000 , -37.8113000 , -39.1340000, 4.3060000  , 10.1770000, 0.000000,       0,       0,       0
 6.790, -0.0006000, -0.0317000,  9.6660000, 34.1873000, 36.2167000 , -37.0941000 , -39.4090000, 4.4850000  , 10.3130000, 0.000000,       0,       0,       0
 6.800, -0.0461000, -0.0401000,  9.6672000, 34.1949000, 36.1252000 , -35.5530000 , -39.3610000, 4.9920000  ,  9.7810000, 0.000000,       0,       0,       0
 6.810, -0.0317000, -0.0006000,  9.6660000, 34.2102000, 36.0641000 , -34.2178000 , -39.1970000, 4.8980000  , 10.0500000, 0.000000,       0,       0,       0
 6.820, 0.0197000 , 0.0772000 ,  9.6648000, 34.2255000, 36.0565000 , -33.6151000 , -39.2350000, 5.0820000  ,  9.9250000, 0.000000,       0,       0,       0
 6.830, 0.0496000 , 0.1202000 ,  9.6672000, 34.2178000, 36.0870000 , -34.0424000 , -39.2120000, 5.0330000  ,  9.5730000, 0.000000,       0,       0,       0
 6.840, 0.0628000 , 0.1418000 ,  9.6684000, 34.2102000, 36.1252000 , -34.8053000 , -39.3500000, 5.6940000  ,  9.0530000, 0.000000,       0,       0,       0
 6.850, 0.0544000 , 0.1442000 ,  9.6660000, 34.2026000, 36.1557000 , -35.6140000 , -39.1920000, 5.2980000  , 10.0980000, 0.000000,       0,       0,       0
 6.860, 0.0233000 , 0.1418000 ,  9.6660000, 34.1949000, 36.1786000 , -36.2320000 , -38.8830000, 6.0760000  ,  9.4250000, 0.000000,       0,       0,       0
 6.870, -0.0173000, 0.1262000 ,  9.6648000, 34.1949000, 36.2015000 , -36.5829000 , -38.9330000, 6.0970000  , 10.2530000, 0.000000,       0,       0,       0
 6.880, -0.0640000, 0.1047000 ,  9.6660000, 34.1949000, 36.2320000 , -36.4151000 , -38.8020000, 6.1640000  , 10.5200000, 0.000000,       0,       0,       0
 6.890, -0.0628000, 0.1107000 ,  9.6660000, 34.2178000, 36.2320000 , -35.7971000 , -38.8400000, 6.4780000  , 10.3130000, 0.000000,       0,       0,       0
 6.900, 0.0329000 , 0.1788000 ,  9.6684000, 34.2407000, 36.2396000 , -35.4767000 , -38.6490000, 6.4550000  , 10.0840000, 0.000000,       0,       0,       0
 6.910, 0.2099000 , 0.2757000 ,  9.6708000, 34.2789000, 36.3083000 , -36.3998000 , -38.9490000, 6.8140000  , 10.5280000, 0.000000,       0,       0,       0
 6.920, 0.3918000 , 0.3212000 ,  9.6708000, 34.3170000, 36.4304000 , -38.7497000 , -38.7480000, 7.2120000  , 10.5670000, 0.000000,       0,       0,       0
 6.930, 0.4480000 , 0.2805000 ,  9.6636000, 34.3246000, 36.5524000 , -41.7786000 , -38.6480000, 7.3760000  , 10.4190000, 0.000000,       0,       0,       0
 6.940, 0.3200000 , 0.1609000 ,  9.6529000, 34.2712000, 36.5372000 , -44.0216000 , -38.5360000, 7.6240000  ,  9.6300000, 0.000000,       0,       0,       0
 6.950, 0.0831000 , 0.0173000 ,  9.6493000, 34.1797000, 36.3693000 , -44.3726000 , -38.4100000, 7.7170000  ,  9.8850000, 0.000000,       0,       0,       0
 6.960, -0.1358000, -0.0939000,  9.6541000, 34.1110000, 36.1404000 , -42.8391000 , -37.9570000, 8.1920000  , 10.5040000, 0.000000,       0,       0,       0
 6.970, -0.2662000, -0.1537000,  9.6612000, 34.0652000, 35.9192000 , -40.2527000 , -38.1670000, 8.1550000  , 10.3980000, 0.000000,       0,       0,       0
 6.980, -0.3092000, -0.1669000,  9.6660000, 34.0729000, 35.7666000 , -37.4222000 , -38.0820000, 8.3180000  , 10.7750000, 0.000000,       0,       0,       0
 6.990, -0.2757000, -0.1370000,  9.6672000, 34.1187000, 35.7208000 , -34.8282000 , -38.0970000, 8.7200000  , 10.1120000, 0.000000,       0,       0,       0
 7.000, -0.1896000, -0.0700000,  9.6684000, 34.1797000, 35.7513000 , -32.9361000 , -37.8700000, 8.7260000  , 10.0320000, 0.000000,       0,       0,       0
 7.010, -0.0796000, 0.0197000 ,  9.6696000, 34.2407000, 35.8353000 , -32.0587000 , -38.0480000, 8.9640000  , 10.3120000, 0.000000,       0,       0,       0
 7.020, 0.0305000 , 0.1142000 ,  9.6708000, 34.2789000, 35.9344000 , -32.2342000 , -37.7020000, 8.9950000  , 10.0590000, 0.000000,       0,       0,       0
 7.030, 0.1226000 , 0.1932000 ,  9.6672000, 34.2941000, 36.0336000 , -33.2947000 , -37.8260000, 9.5320000  , 10.2070000, 0.000000,       0,       0,       0
 7.040, 0.1681000 , 0.2315000 ,  9.6624000, 34.2789000, 36.1176000 , -34.7900000 , -37.4990000, 9.2850000  , 10.3600000, 0.000000,       0,       0,       0
 7.050, 0.1513000 , 0.2303000 ,  9.6624000, 34.2560000, 36.1481000 , -36.1404000 , -37.6250000, 9.7470000  ,  9.8030000, 0.000000,       0,       0,       0
 7.060, 0.1083000 , 0.1920000 ,  9.6636000, 34.2178000, 36.1176000 , -37.1933000 , -37.5630000, 9.8760000  , 10.4560000, 0.000000,       0,       0,       0
 7.070, 0.0796000 , 0.1573000 ,  9.6648000, 34.1797000, 36.0947000 , -38.2462000 , -37.3760000, 10.1780000 , 10.4440000, 0.000000,       0,       0,       0
 7.080, 0.0700000 , 0.1358000 ,  9.6660000, 34.1492000, 36.1252000 , -39.7491000 , -37.1150000, 10.6210000 , 10.2790000, 0.000000,       0,       0,       0
 7.090, 0.0544000 , 0.1130000 ,  9.6660000, 34.1263000, 36.2167000 , -41.6183000 , -36.9360000, 10.8370000 , 10.2490000, 0.000000,       0,       0,       0
 7.100, 0.0197000 , 0.0700000 ,  9.6636000, 34.1034000, 36.2854000 , -43.1976000 , -36.9930000, 10.9010000 , 10.5770000, 0.000000,       0,       0,       0
 7.110, -0.0257000, 0.0197000 ,  9.6624000, 34.0805000, 36.3007000 , -43.8156000 , -36.9150000, 11.5250000 , 10.5350000, 0.000000,       0,       0,       0
 7.120, -0.0604000, -0.0209000,  9.6636000, 34.0729000, 36.2701000 , -43.4647000 , -37.0880000, 11.4880000 , 10.2020000, 0.000000,       0,       0,       0
 7.130, -0.0867000, -0.0520000,  9.6648000, 34.0958000, 36.2244000 , -42.3279000 , -36.6460000, 11.4090000 ,  9.8510000, 0.000000,       0,       0,       0
 7.140, -0.0987000, -0.0736000,  9.6672000, 34.1110000, 36.2396000 , -40.5884000 , -36.3620000, 11.7210000 ,  9.8510000, 0.000000,       0,       0,       0
 7.150, -0.0461000, -0.0616000,  9.6684000, 34.1721000, 36.5982000 , -38.6124000 , -36.5910000, 11.7730000 , 10.1410000, 0.000000,       0,       0,       0
 7.160, 0.0796000 , 0.0209000 ,  9.6744000, 34.2712000, 37.3306000 , -37.6129000 , -36.3530000, 12.0470000 , 10.6750000, 0.000000,       0,       0,       0
 7.170, 0.1609000 , 0.0927000 ,  9.6660000, 34.3475000, 37.8418000 , -37.7502000 , -36.5630000, 12.4690000 ,  9.7940000, 0.000000,       0,       0,       0
 7.180, 0.1489000 , 0.1358000 ,  9.6541000, 34.3323000, 37.5900000 , -38.1241000 , -36.1810000, 12.7580000 , 10.2420000, 0.000000,       0,       0,       0
 7.190, 0.0784000 , 0.1489000 ,  9.6457000, 34.2560000, 36.8347000 , -38.2690000 , -36.0910000, 12.7580000 , 10.5330000, 0.000000,       0,       0,       0
 7.200, -0.0126000, 0.1358000 ,  9.6481000, 34.1644000, 36.1099000 , -37.8647000 , -35.8340000, 12.6620000 , 10.0890000, 0.000000,       0,       0,       0
 7.210, -0.0700000, 0.1226000 ,  9.6576000, 34.0881000, 35.5606000 , -37.0255000 , -35.9450000, 12.9680000 , 10.6500000, 0.000000,       0,       0,       0
 7.220, -0.0807000, 0.0975000 ,  9.6720000, 34.0729000, 35.4004000 , -36.0794000 , -35.4200000, 13.3730000 , 10.4050000, 0.000000,       0,       0,       0
 7.230, -0.0664000, 0.0628000 ,  9.6780000, 34.1339000, 35.6750000 , -35.1410000 , -35.4460000, 13.3610000 , 10.7320000, 0.000000,       0,       0,       0
 7.240, -0.0389000, 0.0197000 ,  9.6816000, 34.2484000, 36.3007000 , -34.1873000 , -35.0100000, 13.5210000 , 10.7640000, 0.000000,       0,       0,       0
 7.250, -0.0090000, -0.0197000,  9.6875000, 34.4162000, 37.2620000 , -33.1573000 , -35.1450000, 14.0300000 , 11.0210000, 0.000000,       0,       0,       0
 7.260, -0.0102000, -0.0520000,  9.6887000, 34.6298000, 38.3759000 , -31.8146000 , -35.0870000, 14.0530000 , 11.3210000, 0.000000,       0,       0,       0
 7.270, -0.0365000, -0.0437000,  9.6828000, 34.8358000, 39.2914000 , -30.1361000 , -35.0740000, 14.0600000 , 11.8040000, 0.000000,       0,       0,       0
 7.280, -0.0640000, -0.0018000,  9.6744000, 34.9884000, 39.9475000 , -28.4500000 , -34.5380000, 14.2300000 , 10.8600000, 0.000000,       0,       0,       0
 7.290, -0.0927000, 0.0592000 ,  9.6720000, 35.0800000, 40.4129000 , -27.0462000 , -34.3330000, 14.7730000 , 10.8980000, 0.000000,       0,       0,       0
 7.300, -0.1095000, 0.1238000 ,  9.6744000, 35.1562000, 40.7333000 , -26.1230000 , -34.4380000, 14.2590000 , 11.0870000, 0.000000,       0,       0,       0
 7.310, -0.1130000, 0.1633000 ,  9.6780000, 35.2707000, 41.0843000 , -25.7416000 , -34.2850000, 14.7730000 , 11.1810000, 0.000000,       0,       0,       0
 7.320, -0.1119000, 0.1597000 ,  9.6792000, 35.4538000, 41.5421000 , -25.8102000 , -34.0700000, 14.6500000 , 10.5500000, 0.000000,       0,       0,       0
 7.330, -0.1262000, 0.1047000 ,  9.6840000, 35.7056000, 42.0990000 , -25.8789000 , -33.7390000, 14.8810000 , 10.8990000, 0.000000,       0,       0,       0
 7.340, -0.1549000, 0.0293000 ,  9.6911000, 36.0413000, 42.7017000 , -25.4440000 , -33.5870000, 14.9760000 , 11.0370000, 0.000000,       0,       0,       0
 7.350, -0.1860000, -0.0185000,  9.6899000, 36.3922000, 43.0984000 , -24.3454000 , -33.7530000, 14.9180000 , 11.2840000, 0.000000,       0,       0,       0
 7.360, -0.1860000, -0.0018000,  9.6780000, 36.6364000, 42.9230000 , -22.9721000 , -33.5430000, 15.2210000 , 11.7220000, 0.000000,       0,       0,       0
 7.370, -0.1645000, 0.0676000 ,  9.6505000, 36.6898000, 42.3126000 , -21.9193000 , -33.5370000, 15.3710000 , 11.6380000, 0.000000,       0,       0,       0
 7.380, -0.1394000, 0.1406000 ,  9.6325000, 36.5143000, 41.3895000 , -21.5607000 , -33.1870000, 15.2400000 , 11.7730000, 0.000000,       0,       0,       0
 7.390, -0.1202000, 0.2016000 ,  9.6241000, 36.2091000, 40.3976000 , -21.8506000 , -33.0310000, 15.8570000 , 11.6780000, 0.000000,       0,       0,       0
 7.400, -0.1286000, 0.2554000 ,  9.6170000, 35.8429000, 39.4363000 , -22.5754000 , -32.7340000, 16.0420000 , 11.6390000, 0.000000,       0,       0,       0
 7.410, -0.1573000, 0.2757000 ,  9.6218000, 35.4309000, 38.4369000 , -23.6511000 , -32.8860000, 15.9530000 , 11.6760000, 0.000000,       0,       0,       0
 7.420, -0.1884000, 0.2470000 ,  9.6445000, 35.1562000, 37.5595000 , -24.8489000 , -32.7350000, 16.2260000 , 11.4760000, 0.000000,       0,       0,       0
 7.430, -0.1920000, 0.1334000 ,  9.6624000, 35.0266000, 36.5677000 , -26.0239000 , -32.3340000, 16.4740000 , 11.7700000, 0.000000,       0,       0,       0
 7.440, -0.1992000, 0.0389000 ,  9.6660000, 35.0342000, 36.1633000 , -25.6195000 , -32.2530000, 16.5680000 , 11.6210000, 0.000000,       0,       0,       0
 7.450, -0.1908000, -0.0018000,  9.7103000, 34.8740000, 36.9797000 , -24.0402000 , -32.1770000, 16.0190000 , 11.7070000, 0.000000,       0,       0,       0
 7.460, -0.1944000, 0.0245000 ,  9.7115000, 34.9503000, 38.3759000 , -22.3160000 , -31.9430000, 15.9720000 , 12.1430000, 0.000000,       0,       0,       0
 7.470, -0.2004000, 0.1095000 ,  9.6804000, 35.0800000, 39.4745000 , -21.1792000 , -31.7090000, 16.2730000 , 12.0820000, 0.000000,       0,       0,       0
 7.480, -0.1585000, 0.2937000 ,  9.6397000, 35.2097000, 39.7568000 , -21.4462000 , -31.5160000, 16.2880000 , 11.5160000, 0.000000,       0,       0,       0
 7.490, -0.0078000, 0.7339000 ,  9.6277000, 35.0952000, 39.5813000 , -25.2228000 , -31.2090000, 17.0850000 , 11.8410000, 0.000000,       0,       0,       0
 7.500, 0.1956000 , 1.1143000 ,  9.6624000, 35.1486000, 39.1617000 , -34.8053000 , -30.8970000, 17.1470000 , 11.4900000, 0.000000,       0,       0,       0
 7.510, 0.3535000 , 1.2818000 ,  9.6756000, 35.3088000, 38.7802000 , -48.7061000 , -30.4290000, 17.3210000 , 12.0920000, 0.000000,       0,       0,       0
 7.520, 0.4241000 , 1.2352000 ,  9.6756000, 35.5225000, 38.3148000 , -64.5676000 , -29.8370000, 17.8750000 , 12.1150000, 0.000000,       0,       0,       0
 7.530, 0.4061000 , 1.0306000 ,  9.6732000, 35.6674000, 37.5290000 , -80.1849000 , -29.6290000, 18.5070000 , 12.4690000, 0.000000,       0,       0,       0
 7.540, 0.3487000 , 0.7435000 ,  9.6624000, 35.7437000, 36.4761000 , -93.7424000 , -29.0390000, 18.8400000 , 11.4740000, 0.000000,       0,       0,       0
 7.550, 0.2973000 , 0.4193000 ,  9.6493000, 35.6522000, 35.1028000 , -104.1870000, -28.8540000, 18.8910000 , 11.8330000, 0.000000,       0,       0,       0
 7.560, 0.1920000 , 0.0867000 ,  9.6481000, 35.3851000, 33.7143000 , -110.5270000, -28.1010000, 19.3590000 , 11.9240000, 0.000000,       0,       0,       0
 7.570, 0.0257000 , -0.2004000,  9.6696000, 35.1181000, 33.1497000 , -112.2208000, -27.7540000, 19.5710000 , 11.7230000, 0.000000,       0,       0,       0
 7.580, -0.1130000, -0.3870000,  9.6887000, 34.9884000, 33.4930000 , -109.8633000, -27.3780000, 19.6390000 , 11.7290000, 0.000000,       0,       0,       0
 7.590, -0.1705000, -0.4779000,  9.6959000, 34.9808000, 34.2865000 , -104.5990000, -26.8930000, 19.8310000 , 11.7320000, 0.000000,       0,       0,       0
 7.600, -0.1944000, -0.4923000,  9.6864000, 35.0647000, 35.1181000 , -97.5418000 , -26.4680000, 19.7550000 , 11.8620000, 0.000000,       0,       0,       0
 7.610, -0.1872000, -0.4588000,  9.6636000, 35.0800000, 35.6369000 , -89.6301000 , -26.3250000, 20.1920000 , 11.6310000, 0.000000,       0,       0,       0
 7.620, -0.1298000, -0.4037000,  9.6517000, 34.9503000, 35.7819000 , -81.7261000 , -25.6500000, 20.2610000 , 12.0360000, 0.000000,       0,       0,       0
 7.630, -0.0628000, -0.3080000,  9.6588000, 34.8282000, 35.8124000 , -74.7757000 , -25.7620000, 20.0470000 , 12.0410000, 0.000000,       0,       0,       0
 7.640, -0.0293000, -0.1812000,  9.6576000, 34.7595000, 35.8353000 , -69.6106000 , -25.5620000, 20.1910000 , 12.0250000, 0.000000,       0,       0,       0
 7.650, -0.0150000, -0.0365000,  9.6564000, 34.7366000, 35.8429000 , -66.6275000 , -24.8910000, 20.7780000 , 11.8790000, 0.000000,       0,       0,       0
 7.660, -0.0138000, 0.0987000 ,  9.6481000, 34.6680000, 35.7361000 , -65.8188000 , -24.2920000, 20.6760000 , 12.2230000, 0.000000,       0,       0,       0
 7.670, -0.0269000, 0.1836000 ,  9.6552000, 34.5840000, 35.5072000 , -66.8106000 , -24.0960000, 20.6640000 , 11.5140000, 0.000000,       0,       0,       0
 7.680, -0.0078000, 0.2064000 ,  9.6696000, 34.5840000, 35.4538000 , -68.8782000 , -23.8300000, 20.7220000 , 11.5350000, 0.000000,       0,       0,       0
 7.690, 0.0604000 , 0.2028000 ,  9.6768000, 34.6451000, 35.6445000 , -71.3196000 , -23.2100000, 21.0300000 , 12.1700000, 0.000000,       0,       0,       0
 7.700, 0.1298000 , 0.2123000 ,  9.6828000, 34.7748000, 36.0031000 , -74.0433000 , -22.8220000, 20.8150000 , 11.4080000, 0.000000,       0,       0,       0
 7.710, 0.1657000 , 0.2387000 ,  9.6864000, 34.9350000, 36.4609000 , -77.3010000 , -22.2210000, 20.8720000 , 12.1840000, 0.000000,       0,       0,       0
 7.720, 0.1226000 , 0.2207000 ,  9.6804000, 35.0723000, 36.9644000 , -81.2073000 , -21.9180000, 20.9530000 , 11.7590000, 0.000000,       0,       0,       0
 7.730, 0.0269000 , 0.1346000 ,  9.6660000, 35.1105000, 37.3154000 , -85.0143000 , -21.7640000, 20.9780000 , 11.9900000, 0.000000,       0,       0,       0
 7.740, -0.0520000, 0.0173000 ,  9.6529000, 35.0647000, 37.4527000 , -87.8448000 , -20.9250000, 21.4410000 , 11.9100000, 0.000000,       0,       0,       0
 7.750, -0.0843000, -0.0927000,  9.6469000, 34.9350000, 37.2849000 , -89.2792000 , -20.4750000, 21.4690000 , 11.5520000, 0.000000,       0,       0,       0
 7.760, -0.0688000, -0.1705000,  9.6517000, 34.8129000, 37.0255000 , -89.2410000 , -20.4380000, 21.0960000 , 11.7190000, 0.000000,       0,       0,       0
 7.770, -0.0377000, -0.2339000,  9.6409000, 34.6680000, 36.7661000 , -87.7762000 , -19.5280000, 21.3770000 , 11.6420000, 0.000000,       0,       0,       0
 7.780, -0.0760000, -0.3332000,  9.6445000, 34.3552000, 36.4075000 , -83.9005000 , -19.4430000, 21.4040000 , 11.8850000, 0.000000,       0,       0,       0
 7.790, -0.1154000, -0.3655000,  9.6529000, 34.2331000, 36.1099000 , -77.1790000 , -19.0100000, 21.1780000 , 12.1450000, 0.000000,       0,       0,       0
 7.800, -0.1298000, -0.3045000,  9.6660000, 34.2178000, 35.9802000 , -69.4046000 , -18.6260000, 21.3620000 , 11.8830000, 0.000000,       0,       0,       0
 7.810, -0.1585000, -0.2722000,  9.6720000, 34.2941000, 36.0336000 , -62.0956000 , -18.5150000, 21.2010000 , 11.6300000, 0.000000,       0,       0,       0
 7.820, -0.2662000, -0.2961000,  9.6732000, 34.4467000, 36.2015000 , -55.1834000 , -18.1460000, 21.2050000 , 12.4160000, 0.000000,       0,       0,       0
 7.830, -0.4719000, -0.3415000,  9.6720000, 34.5993000, 36.3541000 , -48.3017000 , -18.0350000, 21.1660000 , 12.2920000, 0.000000,       0,       0,       0
 7.840, -0.7112000, -0.4002000,  9.6672000, 34.7137000, 36.4380000 , -40.6036000 , -17.7970000, 21.2820000 , 11.9680000, 0.000000,       0,       0,       0
 7.850, -0.8894000, -0.4349000,  9.6588000, 34.7900000, 36.3846000 , -31.3568000 , -17.2390000, 20.9080000 , 11.9180000, 0.000000,       0,       0,       0
 7.860, -0.9445000, -0.3870000,  9.6564000, 34.8663000, 36.1404000 , -20.7596000 , -17.1880000, 21.0600000 , 12.2450000, 0.000000,       0,       0,       0
 7.870, -0.8452000, -0.2638000,  9.6612000, 34.9426000, 35.8429000 , -10.3455000 , -17.1880000, 21.0750000 , 12.5770000, 0.000000,       0,       0,       0
 7.880, -0.6191000, -0.1083000,  9.6648000, 34.9808000, 35.6064000 , -2.3651000  , -16.8740000, 21.1450000 , 12.4660000, 0.000000,       0,       0,       0
 7.890, -0.3523000, 0.0508000 ,  9.6612000, 34.9503000, 35.4843000 , 1.5182000   , -16.6760000, 21.0500000 , 12.5220000, 0.000000,       0,       0,       0
 7.900, -0.1705000, 0.2052000 ,  9.6612000, 34.9045000, 35.5148000 , 1.3809000   , -16.5500000, 20.9890000 , 12.2920000, 0.000000,       0,       0,       0
 7.910, -0.1083000, 0.3188000 ,  9.6660000, 34.8816000, 35.6369000 , -1.0757000  , -16.4800000, 21.1320000 , 12.6780000, 0.000000,       0,       0,       0
 7.920, -0.1095000, 0.3535000 ,  9.6732000, 34.8892000, 35.8124000 , -4.1885000  , -16.2090000, 21.1160000 , 11.9640000, 0.000000,       0,       0,       0
 7.930, -0.1238000, 0.2937000 ,  9.6732000, 34.9274000, 36.0031000 , -6.9199000  , -16.1620000, 20.9610000 , 12.4630000, 0.000000,       0,       0,       0
 7.940, -0.1202000, 0.1800000 ,  9.6672000, 34.9884000, 36.1557000 , -8.7891000  , -15.8710000, 20.6300000 , 12.4560000, 0.000000,       0,       0,       0
 7.950, -0.0831000, 0.0867000 ,  9.6636000, 35.0494000, 36.2473000 , -9.8953000  , -15.8250000, 20.6390000 , 12.4360000, 0.000000,       0,       0,       0
 7.960, -0.0461000, 0.0449000 ,  9.6624000, 35.1105000, 36.2473000 , -10.5896000 , -15.8540000, 20.7110000 , 12.5840000, 0.000000,       0,       0,       0
 7.970, -0.0508000, 0.0772000 ,  9.6588000, 35.1334000, 36.1633000 , -10.8795000 , -15.6580000, 20.9230000 , 12.5810000, 0.000000,       0,       0,       0
 7.980, -0.1956000, 0.2076000 ,  9.6564000, 35.0494000, 35.9726000 , -9.8953000  , -15.4760000, 20.6380000 , 12.1870000, 0.000000,       0,       0,       0
 7.990, -0.3918000, 0.3021000 ,  9.6564000, 35.0037000, 35.7819000 , -6.1798000  , -15.4230000, 20.7410000 , 12.7490000, 0.000000,       0,       0,       0
 8.000, -0.4564000, 0.3547000 ,  9.6624000, 34.9884000, 35.5988000 , -0.7477000  , -15.3600000, 20.5820000 , 12.2540000, 0.000000,       0,       0,       0
 8.010, -0.3451000, 0.3978000 ,  9.6720000, 35.0113000, 35.4996000 , 3.8605000   , -15.0290000, 20.6210000 , 12.6590000, 0.000000,       0,       0,       0
 8.020, -0.1442000, 0.4217000 ,  9.6768000, 35.0571000, 35.5072000 , 5.9204000   , -14.8210000, 20.6920000 , 12.6170000, 0.000000,       0,       0,       0
 8.030, 0.0712000 , 0.4121000 ,  9.6768000, 35.1181000, 35.6369000 , 5.0049000   , -14.6150000, 20.7470000 , 12.7760000, 0.000000,       0,       0,       0
 8.040, 0.2243000 , 0.3679000 ,  9.6732000, 35.1791000, 35.8276000 , 1.7929000   , -14.1830000, 20.9520000 , 12.8360000, 0.000000,       0,       0,       0
 8.050, 0.2662000 , 0.3080000 ,  9.6696000, 35.2402000, 36.0336000 , -2.6016000  , -14.1950000, 20.5940000 , 12.6600000, 0.000000,       0,       0,       0
 8.060, 0.1753000 , 0.2446000 ,  9.6696000, 35.2859000, 36.2015000 , -6.9046000  , -14.3970000, 20.3050000 , 12.4450000, 0.000000,       0,       0,       0
 8.070, -0.0030000, 0.1860000 ,  9.6684000, 35.3165000, 36.2930000 , -9.9716000  , -14.0050000, 20.4400000 , 12.4230000, 0.000000,       0,       0,       0
 8.080, -0.2650000, 0.1298000 ,  9.6660000, 35.3394000, 36.2625000 , -11.3754000 , -13.5440000, 20.4160000 , 12.6800000, 0.000000,       0,       0,       0
 8.090, -0.3703000, 0.0987000 ,  9.6648000, 35.3394000, 36.1557000 , -10.6430000 , -13.4790000, 20.4140000 , 12.7540000, 0.000000,       0,       0,       0
 8.100, -0.4636000, 0.0449000 ,  9.6636000, 35.3088000, 35.9650000 , -8.7509000  , -13.3950000, 20.2980000 , 12.8180000, 0.000000,       0,       0,       0
 8.110, -0.4755000, 0.0293000 ,  9.6636000, 35.2936000, 35.7513000 , -6.1417000  , -13.3680000, 20.2810000 , 12.9290000, 0.000000,       0,       0,       0
 8.120, -0.3930000, 0.0568000 ,  9.6636000, 35.2783000, 35.6140000 , -3.8147000  , -13.2540000, 20.4400000 , 12.3360000, 0.000000,       0,       0,       0
 8.130, -0.2710000, 0.1059000 ,  9.6672000, 35.2707000, 35.5835000 , -2.5635000  , -13.2920000, 20.2070000 , 11.6750000, 0.000000,       0,       0,       0
 8.140, -0.1633000, 0.1585000 ,  9.6696000, 35.2783000, 35.6293000 , -2.6093000  , -13.0450000, 20.1110000 , 12.1320000, 0.000000,       0,       0,       0
 8.150, -0.1119000, 0.1932000 ,  9.6708000, 35.2936000, 35.7208000 , -3.6392000  , -12.4630000, 20.0190000 , 12.0280000, 0.000000,       0,       0,       0
 8.160, -0.1418000, 0.1944000 ,  9.6684000, 35.3088000, 35.8200000 , -4.8447000  , -12.5070000, 20.0970000 , 11.9980000, 0.000000,       0,       0,       0
 8.170, -0.2159000, 0.1788000 ,  9.6672000, 35.3241000, 35.8887000 , -5.2795000  , -12.4030000, 20.2240000 , 12.3480000, 0.000000,       0,       0,       0
 8.180, -0.2686000, 0.1609000 ,  9.6684000, 35.3546000, 35.8963000 , -4.7302000  , -12.1540000, 19.8410000 , 12.4520000, 0.000000,       0,       0,       0
 8.190, -0.2829000, 0.1465000 ,  9.6684000, 35.3699000, 35.8505000 , -3.5782000  , -12.1680000, 20.3660000 , 11.9810000, 0.000000,       0,       0,       0
 8.200, -0.2518000, 0.1358000 ,  9.6684000, 35.3699000, 35.7895000 , -2.4414000  , -12.2670000, 20.2160000 , 11.9120000, 0.000000,       0,       0,       0
 8.210, -0.1788000, 0.1310000 ,  9.6672000, 35.3699000, 35.7208000 , -1.8921000  , -11.9500000, 19.9810000 , 12.4670000, 0.000000,       0,       0,       0
 8.220, -0.0796000, 0.1406000 ,  9.6672000, 35.3622000, 35.6674000 , -2.3270000  , -11.7360000, 19.7500000 , 12.1210000, 0.000000,       0,       0,       0
 8.230, 0.0209000 , 0.1609000 ,  9.6684000, 35.3470000, 35.6750000 , -3.8223000  , -11.6130000, 19.6080000 , 12.3380000, 0.000000,       0,       0,       0
 8.240, 0.1035000 , 0.1836000 ,  9.6708000, 35.3317000, 35.7437000 , -6.1417000  , -11.2320000, 19.4220000 , 11.7520000, 0.000000,       0,       0,       0
 8.250, 0.1896000 , 0.2195000 ,  9.6720000, 35.3394000, 35.8810000 , -8.9493000  , -11.2840000, 19.7890000 , 11.6810000, 0.000000,       0,       0,       0
 8.260, 0.2470000 , 0.2518000 ,  9.6744000, 35.3622000, 36.1786000 , -12.0850000 , -10.8020000, 19.4800000 , 11.8970000, 0.000000,       0,       0,       0
 8.270, 0.1824000 , 0.2542000 ,  9.6720000, 35.3928000, 36.5372000 , -15.0681000 , -10.9590000, 19.1790000 , 11.8900000, 0.000000,       0,       0,       0
 8.280, 0.0006000 , 0.2243000 ,  9.6684000, 35.4233000, 36.8271000 , -16.9220000 , -10.8270000, 19.2690000 , 12.6270000, 0.000000,       0,       0,       0
 8.290, -0.2207000, 0.1741000 ,  9.6624000, 35.4614000, 36.9186000 , -16.9754000 , -10.4610000, 18.9540000 , 12.8860000, 0.000000,       0,       0,       0
 8.300, -0.4205000, 0.1214000 ,  9.6600000, 35.4691000, 36.7889000 , -15.0986000 , -10.4980000, 19.1030000 , 12.5130000, 0.000000,       0,       0,       0
 8.310, -0.5377000, 0.0796000 ,  9.6576000, 35.4538000, 36.4990000 , -11.8637000 , -10.0600000, 18.7960000 , 12.4410000, 0.000000,       0,       0,       0
 8.320, -0.5545000, 0.0616000 ,  9.6576000, 35.4233000, 36.1328000 , -8.1635000  , -10.0700000, 18.9940000 , 12.0870000, 0.000000,       0,       0,       0
 8.330, -0.4779000, 0.0736000 ,  9.6600000, 35.4004000, 35.7819000 , -4.9515000  , -9.9690000 , 18.7720000 , 12.7530000, 0.000000,       0,       0,       0
 8.340, -0.3439000, 0.1142000 ,  9.6624000, 35.3622000, 35.5301000 , -2.9602000  , -9.9500000 , 18.5100000 , 11.8650000, 0.000000,       0,       0,       0
 8.350, -0.1896000, 0.1621000 ,  9.6648000, 35.3394000, 35.4080000 , -2.4872000  , -10.0070000, 18.7980000 , 11.5480000, 0.000000,       0,       0,       0
 8.360, -0.0353000, 0.2040000 ,  9.6684000, 35.3317000, 35.3851000 , -3.5172000  , -9.5900000 , 18.4760000 , 12.4400000, 0.000000,       0,       0,       0
 8.370, 0.0951000 , 0.2291000 ,  9.6684000, 35.3317000, 35.4462000 , -5.7831000  , -9.2770000 , 18.0930000 , 12.2060000, 0.000000,       0,       0,       0
 8.380, 0.1812000 , 0.2434000 ,  9.6696000, 35.3699000, 35.5606000 , -8.8043000  , -9.1440000 , 18.3070000 , 12.2830000, 0.000000,       0,       0,       0
 8.390, 0.2159000 , 0.2542000 ,  9.6708000, 35.4004000, 35.7208000 , -12.1689000 , -8.6330000 , 18.2600000 , 12.4010000, 0.000000,       0,       0,       0
 8.400, 0.1693000 , 0.2375000 ,  9.6708000, 35.4462000, 35.9573000 , -15.4343000 , -8.7420000 , 17.9840000 , 12.1830000, 0.000000,       0,       0,       0
