time  , accel_x   , accel_y    , accel_z    , gyro_x      , gyro_y     , gyro_z     , mag_x      , mag_y      , mag_z      , baro    , gps_lat, gps_lon, gps_alt
51.960, -0.0885000, -0.2949000 , 9.4674000  , 60.6766000  , 66.9174000 , 67.1997000 , -41.1220000, -11.0370000, 6.5590000  , 0.000000,       0,       0,       0
 0.780, 0.1549000 , 0.6448000  , 9.5153000  , 59.6542000  , 61.1191000 , 59.9594000 , -39.5540000, -11.1750000, 6.4270000  , 0.000000,       0,       0,       0
 0.790, 0.1525000 , 0.6615000  , 9.5404000  , 60.0967000  , 61.6455000 , 61.0046000 , -39.7940000, -10.5820000, 6.6140000  , 0.000000,       0,       0,       0
 0.800, 0.1525000 , 0.6615000  , 9.5404000  , 60.0967000  , 61.6455000 , 61.0046000 , -39.7940000, -10.5820000, 6.6140000  , 0.000000,       0,       0,       0
 0.810, 0.1501000 , 0.6448000  , 9.5715000  , 60.2493000  , 62.3856000 , 62.3169000 , -39.7410000, -11.2340000, 7.2980000  , 0.000000,       0,       0,       0
 0.820, 0.1525000 , 0.5850000  , 9.6146000  , 59.8755000  , 63.2477000 , 63.3698000 , -39.6110000, -11.0740000, 6.5950000  , 0.000000,       0,       0,       0
 0.830, 0.1549000 , 0.4857000  , 9.6576000  , 59.0668000  , 63.9648000 , 63.7283000 , -39.5310000, -11.1240000, 7.0840000  , 0.000000,       0,       0,       0
 0.840, 0.1477000 , 0.3697000  , 9.6864000  , 58.2047000  , 64.3158000 , 63.3316000 , -39.5180000, -11.2250000, 7.2450000  , 0.000000,       0,       0,       0
 0.850, 0.1322000 , 0.2692000  , 9.6971000  , 57.6706000  , 64.1785000 , 62.4237000 , -39.7600000, -10.9860000, 7.6120000  , 0.000000,       0,       0,       0
 0.860, 0.1119000 , 0.1998000  , 9.6899000  , 57.6630000  , 63.7131000 , 61.4090000 , -39.5660000, -11.0080000, 7.1760000  , 0.000000,       0,       0,       0
 0.870, 0.0927000 , 0.1687000  , 9.6684000  , 58.2504000  , 63.1943000 , 60.6003000 , -39.8810000, -11.0350000, 6.8060000  , 0.000000,       0,       0,       0
 0.880, 0.0796000 , 0.1771000  , 9.6541000  , 59.3338000  , 62.7289000 , 60.1578000 , -39.5630000, -11.4220000, 6.8770000  , 0.000000,       0,       0,       0
 0.890, 0.0676000 , 0.2177000  , 9.6552000  , 60.5927000  , 62.3093000 , 60.1196000 , -39.4070000, -11.1210000, 6.9010000  , 0.000000,       0,       0,       0
 0.900, 0.0568000 , 0.2728000  , 9.6660000  , 61.5463000  , 61.9659000 , 60.4248000 , -39.3890000, -11.0590000, 7.2820000  , 0.000000,       0,       0,       0
 0.910, 0.0484000 , 0.3206000  , 9.6804000  , 61.8668000  , 61.7371000 , 60.9741000 , -39.7940000, -10.9420000, 6.9520000  , 0.000000,       0,       0,       0
 0.920, 0.0425000 , 0.3469000  , 9.6887000  , 61.5387000  , 61.6074000 , 61.5997000 , -39.6960000, -11.0870000, 6.5500000  , 0.000000,       0,       0,       0
 0.930, 0.0389000 , 0.3505000  , 9.6875000  , 60.8597000  , 61.5387000 , 62.1033000 , -39.6750000, -10.8800000, 6.9460000  , 0.000000,       0,       0,       0
 0.940, 0.0317000 , 0.3409000  , 9.6828000  , 60.1883000  , 61.4319000 , 62.4237000 , -39.5980000, -11.1180000, 7.0150000  , 0.000000,       0,       0,       0
 0.950, 0.0257000 , 0.3218000  , 9.6696000  , 59.7763000  , 61.1801000 , 62.5763000 , -39.5890000, -10.9950000, 6.7610000  , 0.000000,       0,       0,       0
 0.960, 0.0281000 , 0.3051000  , 9.6361000  , 59.6161000  , 60.8749000 , 62.5153000 , -39.8210000, -11.2280000, 6.8470000  , 0.000000,       0,       0,       0
 0.970, 0.0389000 , 0.2967000  , 9.5978000  , 59.5703000  , 60.7071000 , 62.2635000 , -39.9650000, -11.2350000, 6.8570000  , 0.000000,       0,       0,       0
 0.980, 0.0568000 , 0.2979000  , 9.5739000  , 59.4177000  , 60.7376000 , 62.0117000 , -39.9210000, -11.1770000, 6.7770000  , 0.000000,       0,       0,       0
 0.990, 0.0736000 , 0.2919000  , 9.5751000  , 59.1202000  , 60.9894000 , 62.0193000 , -39.9380000, -11.0570000, 6.8410000  , 0.000000,       0,       0,       0
 1.000, 0.0915000 , 0.2716000  , 9.6086000  , 58.8531000  , 61.2946000 , 62.4237000 , -40.0680000, -10.9940000, 6.6440000  , 0.000000,       0,       0,       0
 1.010, 0.1023000 , 0.2584000  , 9.6660000  , 58.8303000  , 61.4243000 , 63.1104000 , -39.9160000, -11.2150000, 6.6540000  , 0.000000,       0,       0,       0
 1.020, 0.1047000 , 0.2548000  , 9.7234000  , 59.1049000  , 61.3098000 , 63.8199000 , -40.0630000, -11.0460000, 6.7380000  , 0.000000,       0,       0,       0
 1.030, 0.0987000 , 0.2512000  , 9.7581000  , 59.5856000  , 60.9283000 , 64.3921000 , -40.1110000, -11.0090000, 6.9170000  , 0.000000,       0,       0,       0
 1.040, 0.1011000 , 0.2440000  , 9.7426000  , 60.0586000  , 60.4630000 , 64.5676000 , -39.9010000, -10.9280000, 6.9500000  , 0.000000,       0,       0,       0
 1.050, 0.1214000 , 0.2668000  , 9.6744000  , 60.3943000  , 60.1807000 , 63.6215000 , -39.6930000, -11.0060000, 6.8430000  , 0.000000,       0,       0,       0
 1.060, 0.1334000 , 0.2991000  , 9.6337000  , 60.1501000  , 60.2798000 , 62.4771000 , -39.9130000, -10.7090000, 6.4200000  , 0.000000,       0,       0,       0
 1.070, 0.1274000 , 0.3385000  , 9.6050000  , 59.5703000  , 60.6232000 , 61.4166000 , -39.9050000, -11.2330000, 6.5360000  , 0.000000,       0,       0,       0
 1.080, 0.1107000 , 0.3756000  , 9.6002000  , 58.8303000  , 61.2488000 , 60.7147000 , -39.9690000, -10.9590000, 6.5110000  , 0.000000,       0,       0,       0
 1.090, 0.0927000 , 0.4031000  , 9.6241000  , 58.1360000  , 61.9507000 , 60.4935000 , -40.0840000, -11.1400000, 6.0250000  , 0.000000,       0,       0,       0
 1.100, 0.0772000 , 0.4103000  , 9.6612000  , 57.7011000  , 62.4619000 , 60.7071000 , -40.0710000, -10.9980000, 6.4160000  , 0.000000,       0,       0,       0
 1.110, 0.0652000 , 0.4008000  , 9.6864000  , 57.6477000  , 62.6450000 , 61.1954000 , -40.0430000, -11.1420000, 6.7680000  , 0.000000,       0,       0,       0
 1.120, 0.0652000 , 0.3912000  , 9.6911000  , 57.9987000  , 62.5076000 , 61.7142000 , -40.1630000, -11.1910000, 6.9120000  , 0.000000,       0,       0,       0
 1.130, 0.0736000 , 0.3816000  , 9.6696000  , 58.6014000  , 62.1796000 , 62.1338000 , -40.1860000, -11.0420000, 7.1220000  , 0.000000,       0,       0,       0
 1.140, 0.0855000 , 0.3756000  , 9.6265000  , 59.1660000  , 61.7828000 , 62.3703000 , -40.0730000, -11.2940000, 6.9850000  , 0.000000,       0,       0,       0
 1.150, 0.0951000 , 0.3828000  , 9.5847000  , 59.5398000  , 61.4471000 , 62.3779000 , -40.1620000, -11.3610000, 6.7220000  , 0.000000,       0,       0,       0
 1.160, 0.0927000 , 0.3912000  , 9.5643000  , 59.7305000  , 61.2488000 , 62.2482000 , -40.1170000, -11.6260000, 6.9900000  , 0.000000,       0,       0,       0
 1.170, 0.0819000 , 0.3900000  , 9.5667000  , 59.8755000  , 61.1267000 , 62.1643000 , -40.1180000, -11.4960000, 7.3480000  , 0.000000,       0,       0,       0
 1.180, 0.0688000 , 0.3852000  , 9.5823000  , 60.0815000  , 61.0886000 , 62.2101000 , -40.2010000, -10.9850000, 7.2840000  , 0.000000,       0,       0,       0
 1.190, 0.0580000 , 0.3804000  , 9.6098000  , 60.3638000  , 61.1343000 , 62.3398000 , -40.1300000, -11.1350000, 6.8390000  , 0.000000,       0,       0,       0
 1.200, 0.0568000 , 0.3708000  , 9.6385000  , 60.6079000  , 61.1877000 , 62.5153000 , -40.3180000, -10.9360000, 7.0360000  , 0.000000,       0,       0,       0
 1.210, 0.0652000 , 0.3625000  , 9.6612000  , 60.7376000  , 61.2259000 , 62.5992000 , -40.5830000, -11.2170000, 7.4390000  , 0.000000,       0,       0,       0
 1.220, 0.0796000 , 0.3577000  , 9.6708000  , 60.7224000  , 61.2106000 , 62.5000000 , -40.4770000, -11.3970000, 6.7860000  , 0.000000,       0,       0,       0
 1.230, 0.0939000 , 0.3577000  , 9.6660000  , 60.5774000  , 61.1877000 , 62.2864000 , -40.3950000, -11.2220000, 6.6300000  , 0.000000,       0,       0,       0
 1.240, 0.1071000 , 0.3601000  , 9.6564000  , 60.3409000  , 61.2259000 , 62.1109000 , -40.1940000, -11.0360000, 7.1590000  , 0.000000,       0,       0,       0
 1.250, 0.1190000 , 0.3637000  , 9.6481000  , 60.0052000  , 61.3861000 , 62.1033000 , -40.1890000, -11.3890000, 6.5360000  , 0.000000,       0,       0,       0
 1.260, 0.1274000 , 0.3577000  , 9.6445000  , 59.5474000  , 61.6684000 , 62.2635000 , -40.2550000, -11.1760000, 6.6860000  , 0.000000,       0,       0,       0
 1.270, 0.1298000 , 0.3433000  , 9.6481000  , 58.9676000  , 62.0041000 , 62.5000000 , -39.9250000, -11.0590000, 6.1650000  , 0.000000,       0,       0,       0
 1.280, 0.1238000 , 0.3086000  , 9.6612000  , 58.3954000  , 62.2864000 , 62.6907000 , -40.0830000, -11.1030000, 6.2870000  , 0.000000,       0,       0,       0
 1.290, 0.1071000 , 0.2620000  , 9.6756000  , 58.0978000  , 62.3550000 , 62.7594000 , -40.1980000, -11.3060000, 6.8490000  , 0.000000,       0,       0,       0
 1.300, 0.0843000 , 0.2285000  , 9.6840000  , 58.2657000  , 62.1872000 , 62.6755000 , -40.0640000, -10.9690000, 7.3830000  , 0.000000,       0,       0,       0
 1.310, 0.0604000 , 0.2201000  , 9.6864000  , 58.7997000  , 61.8362000 , 62.5229000 , -39.8940000, -11.2580000, 6.1820000  , 0.000000,       0,       0,       0
 1.320, 0.0437000 , 0.2428000  , 9.6804000  , 59.4177000  , 61.3861000 , 62.3322000 , -40.1590000, -11.5170000, 6.8350000  , 0.000000,       0,       0,       0
 1.330, 0.0365000 , 0.2883000  , 9.6660000  , 59.9136000  , 61.0123000 , 62.0956000 , -40.1000000, -11.1770000, 7.1440000  , 0.000000,       0,       0,       0
 1.340, 0.0329000 , 0.3374000  , 9.6493000  , 60.1273000  , 60.8063000 , 61.8820000 , -40.2290000, -11.1920000, 6.5510000  , 0.000000,       0,       0,       0
 1.350, 0.0257000 , 0.3756000  , 9.6373000  , 60.0815000  , 60.7605000 , 61.7523000 , -40.1740000, -11.0730000, 6.8960000  , 0.000000,       0,       0,       0
 1.360, 0.0161000 , 0.4020000  , 9.6325000  , 59.9442000  , 60.7681000 , 61.7065000 , -40.1600000, -11.1300000, 7.7880000  , 0.000000,       0,       0,       0
 1.370, 0.0126000 , 0.4187000  , 9.6206000  , 59.9136000  , 60.7681000 , 61.6989000 , -40.1070000, -11.1910000, 7.1670000  , 0.000000,       0,       0,       0
 1.380, 0.0126000 , 0.4438000  , 9.6086000  , 60.0967000  , 60.7834000 , 61.7065000 , -40.3000000, -11.0550000, 7.5240000  , 0.000000,       0,       0,       0
 1.390, 0.0150000 , 0.4725000  , 9.6074000  , 60.5011000  , 60.7605000 , 61.8668000 , -40.2810000, -11.1730000, 7.8350000  , 0.000000,       0,       0,       0
 1.400, 0.0185000 , 0.4929000  , 9.6098000  , 61.0428000  , 60.6918000 , 62.3093000 , -40.0910000, -10.9450000, 7.6050000  , 0.000000,       0,       0,       0
 1.410, 0.0365000 , 0.4953000  , 9.6050000  , 61.4929000  , 60.6918000 , 62.8738000 , -40.1640000, -11.1480000, 7.5010000  , 0.000000,       0,       0,       0
 1.420, 0.0640000 , 0.4905000  , 9.5942000  , 61.5997000  , 60.8368000 , 63.2019000 , -40.3840000, -10.9880000, 7.6280000  , 0.000000,       0,       0,       0
 1.430, 0.0903000 , 0.4773000  , 9.5954000  , 61.2869000  , 61.1801000 , 63.1104000 , -40.2640000, -11.2910000, 7.3930000  , 0.000000,       0,       0,       0
 1.440, 0.1035000 , 0.4522000  , 9.6182000  , 60.6918000  , 61.6074000 , 62.7060000 , -40.0400000, -11.1170000, 7.6980000  , 0.000000,       0,       0,       0
 1.450, 0.1071000 , 0.4139000  , 9.6529000  , 60.1044000  , 61.9125000 , 62.2406000 , -39.8580000, -11.3370000, 6.7450000  , 0.000000,       0,       0,       0
 1.460, 0.1047000 , 0.3756000  , 9.6887000  , 59.7763000  , 61.9965000 , 61.8744000 , -39.7750000, -11.2170000, 7.6660000  , 0.000000,       0,       0,       0
 1.470, 0.1047000 , 0.3505000  , 9.7163000  , 59.7229000  , 61.8896000 , 61.6455000 , -39.9750000, -11.4120000, 7.6610000  , 0.000000,       0,       0,       0
 1.480, 0.1023000 , 0.3493000  , 9.7318000  , 59.8602000  , 61.6837000 , 61.5540000 , -40.2450000, -11.1010000, 6.7830000  , 0.000000,       0,       0,       0
 1.490, 0.0927000 , 0.3457000  , 9.7318000  , 59.9899000  , 61.5158000 , 61.6760000 , -40.2670000, -11.3660000, 7.0570000  , 0.000000,       0,       0,       0
 1.500, 0.0843000 , 0.3350000  , 9.7222000  , 59.9289000  , 61.4548000 , 61.9736000 , -40.0790000, -11.3230000, 6.4290000  , 0.000000,       0,       0,       0
 1.510, 0.0796000 , 0.3218000  , 9.7067000  , 59.6008000  , 61.4777000 , 62.2025000 , -40.1880000, -11.1800000, 6.8070000  , 0.000000,       0,       0,       0
 1.520, 0.0640000 , 0.3003000  , 9.6995000  , 59.1965000  , 61.4853000 , 62.2635000 , -40.1250000, -11.2100000, 6.3480000  , 0.000000,       0,       0,       0
 1.530, 0.0401000 , 0.2740000  , 9.7019000  , 58.9523000  , 61.3480000 , 62.2635000 , -40.0220000, -11.1210000, 6.7400000  , 0.000000,       0,       0,       0
 1.540, 0.0161000 , 0.2620000  , 9.6983000  , 59.0134000  , 61.0275000 , 62.2864000 , -40.0310000, -11.4380000, 6.9930000  , 0.000000,       0,       0,       0
 1.550, 0.0030000 , 0.2644000  , 9.6852000  , 59.3643000  , 60.6995000 , 62.3474000 , -40.0770000, -11.2840000, 6.7380000  , 0.000000,       0,       0,       0
 1.560, 0.0042000 , 0.2763000  , 9.6708000  , 59.7839000  , 60.5164000 , 62.4847000 , -40.1220000, -10.8680000, 6.3880000  , 0.000000,       0,       0,       0
 1.570, 0.0197000 , 0.2955000  , 9.6684000  , 60.0586000  , 60.5316000 , 62.6373000 , -40.0280000, -10.8530000, 6.8600000  , 0.000000,       0,       0,       0
 1.580, 0.0389000 , 0.3158000  , 9.6780000  , 60.1273000  , 60.6995000 , 62.7213000 , -40.0520000, -11.0650000, 7.2820000  , 0.000000,       0,       0,       0
 1.590, 0.0604000 , 0.3338000  , 9.6887000  , 60.0204000  , 60.8826000 , 62.6678000 , -40.0260000, -11.3620000, 7.5200000  , 0.000000,       0,       0,       0
 1.600, 0.0712000 , 0.3481000  , 9.6923000  , 59.8450000  , 61.0580000 , 62.5076000 , -40.1620000, -11.1610000, 7.1100000  , 0.000000,       0,       0,       0
 1.610, 0.0748000 , 0.3553000  , 9.6875000  , 59.7458000  , 61.2564000 , 62.4008000 , -40.3460000, -11.2950000, 7.2020000  , 0.000000,       0,       0,       0
 1.620, 0.0772000 , 0.3613000  , 9.6804000  , 60.0128000  , 61.4166000 , 62.5229000 , -40.1120000, -11.4340000, 6.7300000  , 0.000000,       0,       0,       0
 1.630, 0.0831000 , 0.3673000  , 9.6720000  , 60.3790000  , 61.3708000 , 62.6755000 , -40.0130000, -11.1770000, 6.7550000  , 0.000000,       0,       0,       0
 1.640, 0.0891000 , 0.3756000  , 9.6552000  , 60.6689000  , 61.2717000 , 62.7670000 , -40.1320000, -11.3170000, 6.5830000  , 0.000000,       0,       0,       0
 1.650, 0.0891000 , 0.3828000  , 9.6349000  , 60.7300000  , 61.2183000 , 62.7060000 , -39.8520000, -11.2220000, 6.5480000  , 0.000000,       0,       0,       0
 1.660, 0.0784000 , 0.3828000  , 9.6229000  , 60.5316000  , 61.2411000 , 62.4847000 , -40.0850000, -11.5010000, 6.1190000  , 0.000000,       0,       0,       0
 1.670, 0.0604000 , 0.3708000  , 9.6229000  , 60.1273000  , 61.3098000 , 62.1033000 , -39.9230000, -11.2500000, 6.0170000  , 0.000000,       0,       0,       0
 1.680, 0.0353000 , 0.3481000  , 9.6289000  , 59.5551000  , 61.3480000 , 61.6684000 , -40.0330000, -11.0520000, 6.4090000  , 0.000000,       0,       0,       0
 1.690, 0.0114000 , 0.3266000  , 9.6397000  , 58.8608000  , 61.3632000 , 61.2793000 , -40.1350000, -11.0540000, 5.9180000  , 0.000000,       0,       0,       0
 1.700, -0.0018000, 0.3122000  , 9.6493000  , 58.1512000  , 61.3403000 , 60.9589000 , -40.1570000, -11.4210000, 6.4400000  , 0.000000,       0,       0,       0
 1.710, 0.0018000 , 0.3015000  , 9.6529000  , 57.5714000  , 61.3022000 , 60.7834000 , -40.3290000, -11.4000000, 6.9800000  , 0.000000,       0,       0,       0
 1.720, 0.0185000 , 0.2991000  , 9.6541000  , 57.2662000  , 61.2564000 , 60.8139000 , -39.9130000, -11.3630000, 6.0230000  , 0.000000,       0,       0,       0
 1.730, 0.0461000 , 0.3122000  , 9.6612000  , 57.3120000  , 61.1572000 , 61.0733000 , -39.9460000, -11.4390000, 5.6850000  , 0.000000,       0,       0,       0
 1.740, 0.0760000 , 0.3338000  , 9.6684000  , 57.6782000  , 60.9818000 , 61.5158000 , -40.2790000, -11.1630000, 6.2650000  , 0.000000,       0,       0,       0
 1.750, 0.1035000 , 0.3553000  , 9.6756000  , 58.1894000  , 60.8521000 , 62.0041000 , -39.7210000, -11.2790000, 6.7490000  , 0.000000,       0,       0,       0
 1.760, 0.1250000 , 0.3732000  , 9.6852000  , 58.6014000  , 60.8292000 , 62.4237000 , -39.8190000, -11.2760000, 7.2680000  , 0.000000,       0,       0,       0
 1.770, 0.1382000 , 0.3792000  , 9.6911000  , 58.7158000  , 60.8826000 , 62.6984000 , -40.0980000, -11.3770000, 6.4180000  , 0.000000,       0,       0,       0
 1.780, 0.1418000 , 0.3744000  , 9.6899000  , 58.6777000  , 60.9894000 , 62.7441000 , -39.9300000, -11.2940000, 6.9580000  , 0.000000,       0,       0,       0
 1.790, 0.1382000 , 0.3589000  , 9.6852000  , 58.7769000  , 61.0428000 , 62.5992000 , -39.8220000, -11.1350000, 6.8750000  , 0.000000,       0,       0,       0
 1.800, 0.1334000 , 0.3469000  , 9.6756000  , 59.1965000  , 60.9360000 , 62.4008000 , -39.8270000, -11.1330000, 7.1320000  , 0.000000,       0,       0,       0
 1.810, 0.1262000 , 0.3481000  , 9.6588000  , 59.8755000  , 60.7910000 , 62.2559000 , -39.4970000, -11.2480000, 7.0200000  , 0.000000,       0,       0,       0
 1.820, 0.1154000 , 0.3589000  , 9.6469000  , 60.5469000  , 60.7529000 , 62.2559000 , -39.7960000, -11.1160000, 6.9610000  , 0.000000,       0,       0,       0
 1.830, 0.1023000 , 0.3661000  , 9.6445000  , 60.9360000  , 60.8368000 , 62.4466000 , -39.9710000, -11.1770000, 7.0990000  , 0.000000,       0,       0,       0
 1.840, 0.0819000 , 0.3565000  , 9.6517000  , 60.9741000  , 61.0199000 , 62.7518000 , -39.7970000, -11.4260000, 7.0030000  , 0.000000,       0,       0,       0
 1.850, 0.0604000 , 0.3302000  , 9.6648000  , 60.7834000  , 61.1954000 , 63.0035000 , -39.9310000, -11.2660000, 7.0210000  , 0.000000,       0,       0,       0
 1.860, 0.0449000 , 0.3027000  , 9.6768000  , 60.5698000  , 61.2411000 , 63.0188000 , -39.8750000, -11.5050000, 6.5020000  , 0.000000,       0,       0,       0
 1.870, 0.0365000 , 0.2883000  , 9.6780000  , 60.4782000  , 61.1343000 , 62.7060000 , -40.1730000, -11.7040000, 6.4340000  , 0.000000,       0,       0,       0
 1.880, 0.0389000 , 0.2919000  , 9.6672000  , 60.4935000  , 60.9360000 , 62.1490000 , -39.9740000, -11.3380000, 6.3880000  , 0.000000,       0,       0,       0
 1.890, 0.0496000 , 0.3122000  , 9.6469000  , 60.5545000  , 60.7300000 , 61.5540000 , -40.1010000, -11.2060000, 6.8990000  , 0.000000,       0,       0,       0
 1.900, 0.0640000 , 0.3433000  , 9.6277000  , 60.6461000  , 60.6232000 , 61.1267000 , -39.7960000, -10.8710000, 7.0760000  , 0.000000,       0,       0,       0
 1.910, 0.0712000 , 0.3720000  , 9.6194000  , 60.7376000  , 60.6537000 , 61.0199000 , -40.0910000, -11.4630000, 6.9140000  , 0.000000,       0,       0,       0
 1.920, 0.0736000 , 0.3852000  , 9.6265000  , 60.6918000  , 60.8368000 , 61.2564000 , -40.2580000, -11.5090000, 7.1350000  , 0.000000,       0,       0,       0
 1.930, 0.0724000 , 0.3780000  , 9.6445000  , 60.4172000  , 61.0809000 , 61.6226000 , -40.1660000, -11.2440000, 6.6810000  , 0.000000,       0,       0,       0
 1.940, 0.0640000 , 0.3505000  , 9.6648000  , 60.0510000  , 61.2488000 , 61.8820000 , -40.2850000, -11.3410000, 6.2380000  , 0.000000,       0,       0,       0
 1.950, 0.0461000 , 0.3098000  , 9.6816000  , 59.8297000  , 61.2183000 , 61.9125000 , -40.0230000, -11.2440000, 6.7180000  , 0.000000,       0,       0,       0
 1.960, 0.0281000 , 0.2763000  , 9.6852000  , 59.9289000  , 60.9741000 , 61.7218000 , -40.0840000, -11.3990000, 6.1200000  , 0.000000,       0,       0,       0
 1.970, 0.0090000 , 0.2883000  , 9.6935000  , 60.3638000  , 60.5621000 , 61.4624000 , -40.2420000, -11.2690000, 6.6730000  , 0.000000,       0,       0,       0
 1.980, -0.0042000, 0.3433000  , 9.7103000  , 61.1191000  , 59.9976000 , 61.4624000 , -40.0150000, -11.3070000, 6.5940000  , 0.000000,       0,       0,       0
 1.990, -0.0150000, 0.4008000  , 9.7198000  , 62.0346000  , 59.4406000 , 62.0346000 , -40.1800000, -11.4740000, 6.4520000  , 0.000000,       0,       0,       0
 2.000, -0.0018000, 0.4462000  , 9.7067000  , 62.7823000  , 59.0973000 , 63.0951000 , -40.2590000, -11.4450000, 7.0250000  , 0.000000,       0,       0,       0
 2.010, 0.0377000 , 0.4797000  , 9.6720000  , 62.9959000  , 59.0057000 , 64.1174000 , -40.3420000, -11.5940000, 6.5410000  , 0.000000,       0,       0,       0
 2.020, 0.0867000 , 0.4881000  , 9.6301000  , 62.5229000  , 59.2346000 , 64.7049000 , -40.1010000, -11.2350000, 6.5460000  , 0.000000,       0,       0,       0
 2.030, 0.1286000 , 0.4713000  , 9.5978000  , 61.4243000  , 59.7229000 , 64.7049000 , -40.0410000, -11.2180000, 6.4540000  , 0.000000,       0,       0,       0
 2.040, 0.1621000 , 0.4402000  , 9.5811000  , 60.0967000  , 60.2722000 , 64.1708000 , -40.2520000, -11.6170000, 6.5630000  , 0.000000,       0,       0,       0
 2.050, 0.1824000 , 0.4067000  , 9.5787000  , 58.9523000  , 60.7452000 , 63.3621000 , -40.1370000, -11.2080000, 6.2160000  , 0.000000,       0,       0,       0
 2.060, 0.1836000 , 0.3720000  , 9.5883000  , 58.2962000  , 61.0809000 , 62.6144000 , -39.8930000, -11.2700000, 6.2300000  , 0.000000,       0,       0,       0
 2.070, 0.1776000 , 0.3433000  , 9.6158000  , 58.2886000  , 61.3022000 , 62.2330000 , -40.0290000, -11.2210000, 6.7270000  , 0.000000,       0,       0,       0
 2.080, 0.1657000 , 0.3266000  , 9.6612000  , 58.8150000  , 61.3708000 , 62.3322000 , -40.0930000, -11.1140000, 6.6980000  , 0.000000,       0,       0,       0
 2.090, 0.1549000 , 0.3206000  , 9.7043000  , 59.5398000  , 61.3174000 , 62.7518000 , -40.2540000, -11.1810000, 6.8960000  , 0.000000,       0,       0,       0
 2.100, 0.1442000 , 0.3170000  , 9.7306000  , 60.1349000  , 61.2335000 , 63.1638000 , -40.0460000, -11.2530000, 7.9000000  , 0.000000,       0,       0,       0
 2.110, 0.1358000 , 0.3098000  , 9.7342000  , 60.4324000  , 61.1725000 , 63.2782000 , -40.2740000, -10.7560000, 6.4500000  , 0.000000,       0,       0,       0
 2.120, 0.1286000 , 0.3074000  , 9.7210000  , 60.4630000  , 61.1267000 , 62.9807000 , -40.3090000, -11.2580000, 7.3100000  , 0.000000,       0,       0,       0
 2.130, 0.1214000 , 0.3146000  , 9.6959000  , 60.2722000  , 61.1572000 , 62.4237000 , -40.0180000, -11.0440000, 7.1800000  , 0.000000,       0,       0,       0
 2.140, 0.1130000 , 0.3206000  , 9.6696000  , 59.9213000  , 61.3022000 , 61.9278000 , -40.2390000, -11.4330000, 6.7840000  , 0.000000,       0,       0,       0
 2.150, 0.1047000 , 0.3122000  , 9.6505000  , 59.5245000  , 61.5387000 , 61.7218000 , -40.0070000, -11.0330000, 6.9230000  , 0.000000,       0,       0,       0
 2.160, 0.0975000 , 0.2967000  , 9.6457000  , 59.2880000  , 61.7599000 , 61.7523000 , -40.0960000, -11.1730000, 6.7590000  , 0.000000,       0,       0,       0
 2.170, 0.0855000 , 0.2835000  , 9.6576000  , 59.3872000  , 61.8134000 , 61.9202000 , -40.0790000, -11.3570000, 6.4660000  , 0.000000,       0,       0,       0
 2.180, 0.0688000 , 0.2751000  , 9.6780000  , 59.8297000  , 61.6608000 , 62.2177000 , -40.4690000, -11.2310000, 7.5420000  , 0.000000,       0,       0,       0
 2.190, 0.0568000 , 0.2823000  , 9.6911000  , 60.3485000  , 61.3861000 , 62.5687000 , -40.1550000, -11.3830000, 7.1800000  , 0.000000,       0,       0,       0
 2.200, 0.0616000 , 0.3098000  , 9.7031000  , 60.7224000  , 60.9818000 , 62.8052000 , -39.9310000, -11.5180000, 7.2520000  , 0.000000,       0,       0,       0
 2.210, 0.0760000 , 0.3326000  , 9.7031000  , 60.6537000  , 60.7147000 , 62.5000000 , -40.1290000, -11.1990000, 6.7690000  , 0.000000,       0,       0,       0
 2.220, 0.0903000 , 0.3553000  , 9.6947000  , 60.4935000  , 60.4858000 , 61.8820000 , -40.1480000, -11.3980000, 6.8630000  , 0.000000,       0,       0,       0
 2.230, 0.1011000 , 0.3756000  , 9.6756000  , 60.3409000  , 60.2951000 , 61.2640000 , -40.0280000, -10.6380000, 7.0350000  , 0.000000,       0,       0,       0
 2.240, 0.1119000 , 0.3948000  , 9.6445000  , 60.2417000  , 60.2417000 , 60.8521000 , -40.1120000, -11.1100000, 7.6500000  , 0.000000,       0,       0,       0
 2.250, 0.1190000 , 0.4115000  , 9.6122000  , 60.2188000  , 60.2951000 , 60.7300000 , -39.9610000, -11.4460000, 6.8370000  , 0.000000,       0,       0,       0
 2.260, 0.1214000 , 0.4271000  , 9.5835000  , 60.2112000  , 60.3943000 , 60.9131000 , -40.0470000, -11.1730000, 6.6170000  , 0.000000,       0,       0,       0
 2.270, 0.1178000 , 0.4378000  , 9.5619000  , 60.1807000  , 60.5316000 , 61.3251000 , -40.4350000, -11.4280000, 6.5170000  , 0.000000,       0,       0,       0
 2.280, 0.1119000 , 0.4366000  , 9.5572000  , 60.1654000  , 60.6689000 , 61.7752000 , -40.1720000, -11.1570000, 6.4600000  , 0.000000,       0,       0,       0
 2.290, 0.1071000 , 0.4307000  , 9.5631000  , 60.2493000  , 60.6613000 , 62.0728000 , -39.9370000, -11.0060000, 6.9510000  , 0.000000,       0,       0,       0
 2.300, 0.1047000 , 0.4235000  , 9.5727000  , 60.3714000  , 60.5545000 , 62.1338000 , -40.0700000, -11.1030000, 6.7640000  , 0.000000,       0,       0,       0
 2.310, 0.1023000 , 0.4127000  , 9.5883000  , 60.4019000  , 60.4706000 , 62.0270000 , -40.0130000, -11.3050000, 6.7600000  , 0.000000,       0,       0,       0
 2.320, 0.0987000 , 0.3984000  , 9.6110000  , 60.2341000  , 60.4324000 , 61.8744000 , -40.4570000, -10.9600000, 6.5300000  , 0.000000,       0,       0,       0
 2.330, 0.0951000 , 0.3804000  , 9.6397000  , 59.9136000  , 60.4553000 , 61.7447000 , -40.3380000, -11.0280000, 7.2160000  , 0.000000,       0,       0,       0
 2.340, 0.0915000 , 0.3517000  , 9.6708000  , 59.6237000  , 60.4630000 , 61.6531000 , -40.2430000, -11.0820000, 6.4500000  , 0.000000,       0,       0,       0
 2.350, 0.0879000 , 0.3158000  , 9.7007000  , 59.6390000  , 60.3638000 , 61.5311000 , -40.2480000, -10.9090000, 6.4720000  , 0.000000,       0,       0,       0
 2.360, 0.0927000 , 0.2931000  , 9.7246000  , 60.0815000  , 60.1044000 , 61.3251000 , -40.4380000, -11.2800000, 6.4290000  , 0.000000,       0,       0,       0
 2.370, 0.1119000 , 0.2955000  , 9.7378000  , 60.8826000  , 59.7382000 , 61.0123000 , -39.9980000, -10.9520000, 6.5960000  , 0.000000,       0,       0,       0
 2.380, 0.1418000 , 0.3290000  , 9.7378000  , 61.7218000  , 59.4025000 , 60.6613000 , -40.1500000, -11.0770000, 7.0580000  , 0.000000,       0,       0,       0
 2.390, 0.1788000 , 0.3864000  , 9.7258000  , 62.2101000  , 59.3109000 , 60.4248000 , -40.1520000, -11.2210000, 6.0880000  , 0.000000,       0,       0,       0
 2.400, 0.2088000 , 0.4426000  , 9.7103000  , 62.0575000  , 59.5779000 , 60.4553000 , -40.0850000, -11.4210000, 5.9660000  , 0.000000,       0,       0,       0
 2.410, 0.2231000 , 0.4797000  , 9.6971000  , 61.3327000  , 60.1578000 , 60.8063000 , -40.2800000, -11.3290000, 6.0120000  , 0.000000,       0,       0,       0
 2.420, 0.2207000 , 0.4833000  , 9.6840000  , 60.4095000  , 60.8139000 , 61.3480000 , -40.3410000, -11.2540000, 6.8130000  , 0.000000,       0,       0,       0
 2.430, 0.1968000 , 0.4546000  , 9.6708000  , 59.7000000  , 61.3403000 , 61.9202000 , -40.1860000, -11.2990000, 6.8860000  , 0.000000,       0,       0,       0
 2.440, 0.1609000 , 0.4139000  , 9.6600000  , 59.4254000  , 61.5845000 , 62.4237000 , -40.3520000, -11.0200000, 6.5490000  , 0.000000,       0,       0,       0
 2.450, 0.1202000 , 0.3804000  , 9.6552000  , 59.5398000  , 61.5997000 , 62.7670000 , -40.4960000, -10.9340000, 6.8130000  , 0.000000,       0,       0,       0
 2.460, 0.0939000 , 0.3625000  , 9.6529000  , 59.7534000  , 61.4929000 , 62.8586000 , -40.2990000, -11.0110000, 6.1540000  , 0.000000,       0,       0,       0
 2.470, 0.0831000 , 0.3565000  , 9.6564000  , 59.7992000  , 61.3708000 , 62.6831000 , -40.3980000, -11.0520000, 5.9930000  , 0.000000,       0,       0,       0
 2.480, 0.0819000 , 0.3553000  , 9.6648000  , 59.6008000  , 61.2793000 , 62.2940000 , -40.4460000, -11.0700000, 6.0080000  , 0.000000,       0,       0,       0
 2.490, 0.0807000 , 0.3517000  , 9.6768000  , 59.2957000  , 61.2564000 , 61.8515000 , -40.5590000, -11.2860000, 5.9120000  , 0.000000,       0,       0,       0
 2.500, 0.0843000 , 0.3457000  , 9.6804000  , 59.0668000  , 61.2259000 , 61.4853000 , -40.5500000, -10.9960000, 6.5760000  , 0.000000,       0,       0,       0
 2.510, 0.0891000 , 0.3421000  , 9.6792000  , 59.0439000  , 61.1343000 , 61.2640000 , -40.0820000, -11.3380000, 6.5120000  , 0.000000,       0,       0,       0
 2.520, 0.0963000 , 0.3421000  , 9.6708000  , 59.2575000  , 60.9207000 , 61.2411000 , -40.5910000, -11.0670000, 6.6260000  , 0.000000,       0,       0,       0
 2.530, 0.1142000 , 0.3601000  , 9.6481000  , 59.6771000  , 60.6537000 , 61.3022000 , -40.2640000, -10.9250000, 5.6100000  , 0.000000,       0,       0,       0
 2.540, 0.1406000 , 0.3924000  , 9.6170000  , 60.1501000  , 60.4553000 , 61.3174000 , -40.5520000, -10.8620000, 6.2790000  , 0.000000,       0,       0,       0
 2.550, 0.1681000 , 0.4378000  , 9.5906000  , 60.4095000  , 60.3867000 , 61.3632000 , -40.2730000, -10.7680000, 6.1050000  , 0.000000,       0,       0,       0
 2.560, 0.1884000 , 0.4845000  , 9.5727000  , 60.3333000  , 60.5240000 , 61.5158000 , -40.6510000, -11.0840000, 6.2420000  , 0.000000,       0,       0,       0
 2.570, 0.1980000 , 0.5084000  , 9.5739000  , 60.0204000  , 60.8292000 , 61.7981000 , -40.3050000, -11.0600000, 5.8460000  , 0.000000,       0,       0,       0
 2.580, 0.1968000 , 0.5096000  , 9.5883000  , 59.6237000  , 61.1496000 , 62.2025000 , -40.1250000, -11.1730000, 6.5580000  , 0.000000,       0,       0,       0
 2.590, 0.1860000 , 0.4977000  , 9.6062000  , 59.2422000  , 61.4243000 , 62.5763000 , -40.0770000, -11.0450000, 6.8690000  , 0.000000,       0,       0,       0
 2.600, 0.1729000 , 0.4785000  , 9.6182000  , 58.8913000  , 61.6837000 , 62.7289000 , -40.1170000, -11.0000000, 6.5220000  , 0.000000,       0,       0,       0
 2.610, 0.1657000 , 0.4546000  , 9.6253000  , 58.6090000  , 61.9202000 , 62.5610000 , -40.1140000, -11.0040000, 6.1490000  , 0.000000,       0,       0,       0
 2.620, 0.1573000 , 0.4307000  , 9.6265000  , 58.5098000  , 62.0422000 , 62.1796000 , -40.2350000, -10.9020000, 6.6070000  , 0.000000,       0,       0,       0
 2.630, 0.1465000 , 0.4103000  , 9.6277000  , 58.6624000  , 62.1414000 , 61.7981000 , -40.0950000, -10.6480000, 5.9450000  , 0.000000,       0,       0,       0
 2.640, 0.1346000 , 0.3888000  , 9.6397000  , 59.0210000  , 62.2482000 , 61.5387000 , -40.0380000, -11.0430000, 5.8770000  , 0.000000,       0,       0,       0
 2.650, 0.1322000 , 0.3708000  , 9.6600000  , 59.4559000  , 62.2864000 , 61.2717000 , -40.3740000, -10.8270000, 6.2530000  , 0.000000,       0,       0,       0
 2.660, 0.1334000 , 0.3637000  , 9.6816000  , 59.8145000  , 62.3016000 , 60.8444000 , -40.3400000, -11.0080000, 7.2830000  , 0.000000,       0,       0,       0
 2.670, 0.1382000 , 0.3661000  , 9.6995000  , 59.9518000  , 62.3932000 , 60.2341000 , -40.0620000, -10.9870000, 5.8960000  , 0.000000,       0,       0,       0
 2.680, 0.1406000 , 0.3732000  , 9.7127000  , 59.8221000  , 62.5992000 , 59.6390000 , -40.2670000, -11.0570000, 6.4740000  , 0.000000,       0,       0,       0
 2.690, 0.1537000 , 0.3840000  , 9.7091000  , 59.5093000  , 62.8433000 , 59.1049000 , -40.0910000, -10.7730000, 7.1380000  , 0.000000,       0,       0,       0
 2.700, 0.1549000 , 0.3792000  , 9.6995000  , 59.2041000  , 62.9654000 , 58.7769000 , -40.1430000, -11.1570000, 6.9850000  , 0.000000,       0,       0,       0
 2.710, 0.1358000 , 0.3720000  , 9.7019000  , 59.0515000  , 62.9272000 , 58.7997000 , -39.9250000, -11.0010000, 6.6710000  , 0.000000,       0,       0,       0
 2.720, 0.1071000 , 0.3565000  , 9.7115000  , 59.1583000  , 62.7365000 , 59.0668000 , -40.1440000, -10.5740000, 6.3960000  , 0.000000,       0,       0,       0
 2.730, 0.0831000 , 0.3338000  , 9.7151000  , 59.4559000  , 62.3550000 , 59.3643000 , -39.8710000, -10.9610000, 6.7150000  , 0.000000,       0,       0,       0
 2.740, 0.0688000 , 0.3206000  , 9.7019000  , 59.7076000  , 61.8973000 , 59.5016000 , -40.1850000, -11.1330000, 6.0890000  , 0.000000,       0,       0,       0
 2.750, 0.0676000 , 0.3266000  , 9.6804000  , 59.7229000  , 61.6150000 , 59.3567000 , -40.1430000, -11.0540000, 7.0000000  , 0.000000,       0,       0,       0
 2.760, 0.0772000 , 0.3362000  , 9.6564000  , 59.4711000  , 61.5616000 , 59.0134000 , -40.3610000, -10.9000000, 6.3480000  , 0.000000,       0,       0,       0
 2.770, 0.0891000 , 0.3242000  , 9.6158000  , 58.8150000  , 61.7142000 , 58.4793000 , -40.2840000, -10.8870000, 6.6890000  , 0.000000,       0,       0,       0
 2.780, 0.0867000 , 0.3218000  , 9.6086000  , 58.5403000  , 61.8286000 , 58.2352000 , -40.3590000, -11.0570000, 6.1420000  , 0.000000,       0,       0,       0
 2.790, 0.0784000 , 0.3302000  , 9.6206000  , 58.5938000  , 61.7981000 , 58.1512000 , -40.2890000, -10.8710000, 6.3800000  , 0.000000,       0,       0,       0
 2.800, 0.0652000 , 0.3601000  , 9.6445000  , 58.9142000  , 61.5845000 , 58.3267000 , -40.4460000, -10.9490000, 6.8880000  , 0.000000,       0,       0,       0
 2.810, 0.0592000 , 0.3996000  , 9.6636000  , 59.2575000  , 61.3251000 , 58.8379000 , -40.2470000, -11.1300000, 6.7390000  , 0.000000,       0,       0,       0
 2.820, 0.0640000 , 0.4199000  , 9.6600000  , 59.3719000  , 61.1801000 , 59.5779000 , -40.1500000, -10.9610000, 6.5350000  , 0.000000,       0,       0,       0
 2.830, 0.0772000 , 0.4295000  , 9.6385000  , 59.1888000  , 61.2183000 , 60.1883000 , -40.1450000, -10.9980000, 7.0880000  , 0.000000,       0,       0,       0
 2.840, 0.0867000 , 0.4331000  , 9.6241000  , 58.8837000  , 61.4853000 , 60.5392000 , -40.3020000, -10.8840000, 7.0570000  , 0.000000,       0,       0,       0
 2.850, 0.0891000 , 0.4223000  , 9.6325000  , 58.6166000  , 61.6684000 , 60.8521000 , -40.2050000, -10.6710000, 6.6350000  , 0.000000,       0,       0,       0
 2.860, 0.0843000 , 0.3984000  , 9.6481000  , 58.5632000  , 61.6074000 , 61.3251000 , -40.1090000, -11.0580000, 6.9550000  , 0.000000,       0,       0,       0
 2.870, 0.0807000 , 0.3685000  , 9.6541000  , 58.7540000  , 61.2946000 , 61.9354000 , -40.2140000, -11.1560000, 6.8880000  , 0.000000,       0,       0,       0
 2.880, 0.0855000 , 0.3445000  , 9.6529000  , 59.0057000  , 60.9207000 , 62.4847000 , -40.2970000, -11.0870000, 6.7420000  , 0.000000,       0,       0,       0
 2.890, 0.0987000 , 0.3385000  , 9.6505000  , 59.0439000  , 60.5850000 , 62.7441000 , -40.4280000, -11.0820000, 7.4400000  , 0.000000,       0,       0,       0
 2.900, 0.1095000 , 0.3457000  , 9.6564000  , 58.7158000  , 60.4324000 , 62.7136000 , -40.4660000, -11.1420000, 6.4170000  , 0.000000,       0,       0,       0
 2.910, 0.1071000 , 0.3517000  , 9.6804000  , 58.0902000  , 60.4935000 , 62.5687000 , -40.7170000, -10.8540000, 6.9220000  , 0.000000,       0,       0,       0
 2.920, 0.0939000 , 0.3350000  , 9.7198000  , 57.4112000  , 60.7376000 , 62.3779000 , -40.0770000, -10.8380000, 7.3420000  , 0.000000,       0,       0,       0
 2.930, 0.0867000 , 0.3074000  , 9.7521000  , 56.9916000  , 61.0123000 , 61.9354000 , -40.0880000, -10.8200000, 7.3160000  , 0.000000,       0,       0,       0
 2.940, 0.0652000 , 0.2931000  , 9.7821000  , 56.8848000  , 61.2717000 , 61.0733000 , -40.0370000, -10.9560000, 7.1940000  , 0.000000,       0,       0,       0
 2.950, 0.0461000 , 0.2967000  , 9.8024000  , 56.8314000  , 61.5387000 , 59.9823000 , -40.3330000, -10.9160000, 7.6380000  , 0.000000,       0,       0,       0
 2.960, 0.0353000 , 0.3086000  , 9.8000000  , 56.6025000  , 61.7218000 , 59.0363000 , -40.2490000, -10.7600000, 7.0380000  , 0.000000,       0,       0,       0
 2.970, 0.0329000 , 0.3242000  , 9.7701000  , 56.3049000  , 61.9125000 , 58.4488000 , -40.2210000, -10.5010000, 6.9440000  , 0.000000,       0,       0,       0
 2.980, 0.0413000 , 0.3314000  , 9.7282000  , 56.2668000  , 62.0193000 , 58.4030000 , -40.5470000, -10.7990000, 6.6940000  , 0.000000,       0,       0,       0
 2.990, 0.0544000 , 0.3206000  , 9.6792000  , 56.7017000  , 61.9049000 , 58.9600000 , -40.2980000, -11.1320000, 6.5270000  , 0.000000,       0,       0,       0
 3.000, 0.0712000 , 0.3051000  , 9.6289000  , 57.5180000  , 61.5005000 , 59.9365000 , -40.2220000, -10.7530000, 6.7340000  , 0.000000,       0,       0,       0
 3.010, 0.1011000 , 0.3110000  , 9.5823000  , 58.3191000  , 61.0199000 , 61.0275000 , -40.4490000, -10.5860000, 6.7870000  , 0.000000,       0,       0,       0
 3.020, 0.1358000 , 0.3385000  , 9.5476000  , 58.7006000  , 60.7376000 , 61.9049000 , -40.2010000, -10.6180000, 6.6540000  , 0.000000,       0,       0,       0
 3.030, 0.1669000 , 0.3649000  , 9.5284000  , 58.6624000  , 60.7681000 , 62.3169000 , -40.4620000, -10.6700000, 6.5680000  , 0.000000,       0,       0,       0
 3.040, 0.1848000 , 0.3756000  , 9.5272000  , 58.5251000  , 61.0504000 , 62.2864000 , -40.2490000, -10.8590000, 6.6280000  , 0.000000,       0,       0,       0
 3.050, 0.1848000 , 0.3756000  , 9.5416000  , 58.5327000  , 61.3403000 , 62.1185000 , -40.1870000, -10.7190000, 6.4170000  , 0.000000,       0,       0,       0
 3.060, 0.1729000 , 0.3792000  , 9.5655000  , 58.7387000  , 61.6074000 , 62.0499000 , -40.5150000, -11.0620000, 6.6700000  , 0.000000,       0,       0,       0
 3.070, 0.1561000 , 0.3804000  , 9.5966000  , 59.0897000  , 61.8591000 , 62.1948000 , -40.5220000, -10.8260000, 6.6740000  , 0.000000,       0,       0,       0
 3.080, 0.1382000 , 0.3708000  , 9.6313000  , 59.4254000  , 61.9888000 , 62.5305000 , -40.3010000, -10.9980000, 6.5770000  , 0.000000,       0,       0,       0
 3.090, 0.1214000 , 0.3541000  , 9.6529000  , 59.6924000  , 61.9659000 , 62.8357000 , -40.0750000, -10.8070000, 6.7170000  , 0.000000,       0,       0,       0
 3.100, 0.1035000 , 0.3290000  , 9.6672000  , 59.8907000  , 61.8515000 , 62.9807000 , -40.3250000, -11.0660000, 6.8440000  , 0.000000,       0,       0,       0
 3.110, 0.0915000 , 0.3039000  , 9.6816000  , 60.0128000  , 61.6608000 , 62.9272000 , -40.3930000, -10.5580000, 6.8010000  , 0.000000,       0,       0,       0
 3.120, 0.0915000 , 0.2835000  , 9.6971000  , 60.0128000  , 61.4548000 , 62.6221000 , -40.5430000, -10.8380000, 6.9430000  , 0.000000,       0,       0,       0
 3.130, 0.0999000 , 0.2620000  , 9.7234000  , 59.9365000  , 61.2946000 , 62.1338000 , -40.4390000, -10.8490000, 6.4590000  , 0.000000,       0,       0,       0
 3.140, 0.0975000 , 0.2213000  , 9.7797000  , 59.9136000  , 61.0275000 , 61.6531000 , -40.3610000, -11.1000000, 6.5560000  , 0.000000,       0,       0,       0
 3.150, 0.0903000 , 0.1782000  , 9.8622000  , 60.1578000  , 60.3867000 , 61.2564000 , -40.4410000, -11.0450000, 6.3570000  , 0.000000,       0,       0,       0
 3.160, 0.0688000 , 0.1459000  , 9.9579000  , 60.9055000  , 59.2041000 , 60.9512000 , -40.2800000, -10.8620000, 6.4560000  , 0.000000,       0,       0,       0
 3.170, 0.0401000 , 0.1400000  , 10.0488000 , 62.1338000  , 57.5256000 , 60.8292000 , -40.3550000, -10.7000000, 5.8210000  , 0.000000,       0,       0,       0
 3.180, 0.0173000 , 0.1651000  , 10.1086000 , 63.5986000  , 55.7404000 , 60.8978000 , -40.3480000, -10.6280000, 6.5470000  , 0.000000,       0,       0,       0
 3.190, 0.0221000 , 0.2249000  , 10.1290000 , 65.0253000  , 54.2221000 , 60.9436000 , -40.1700000, -10.8220000, 6.1460000  , 0.000000,       0,       0,       0
 3.200, 0.0473000 , 0.2943000  , 10.0991000 , 66.1163000  , 53.0167000 , 60.8521000 , -40.6260000, -10.3620000, 5.1290000  , 0.000000,       0,       0,       0
 3.210, 0.0903000 , 0.3553000  , 10.0141000 , 66.6656000  , 52.2614000 , 60.6766000 , -40.5170000, -10.6040000, 6.5870000  , 0.000000,       0,       0,       0
 3.220, 0.1465000 , 0.3960000  , 9.8837000  , 66.6733000  , 51.9943000 , 60.4858000 , -40.3810000, -10.4750000, 5.9350000  , 0.000000,       0,       0,       0
 3.230, 0.2052000 , 0.4151000  , 9.7234000  , 66.2766000  , 52.2537000 , 60.3790000 , -40.4030000, -10.5040000, 6.3920000  , 0.000000,       0,       0,       0
 3.240, 0.2662000 , 0.4175000  , 9.5500000  , 65.5670000  , 53.0624000 , 60.4401000 , -40.4950000, -10.7110000, 6.4630000  , 0.000000,       0,       0,       0
 3.250, 0.3236000 , 0.4163000  , 9.3909000  , 64.5676000  , 54.3976000 , 60.6384000 , -40.2660000, -10.8480000, 6.2900000  , 0.000000,       0,       0,       0
 3.260, 0.3703000 , 0.4175000  , 9.2593000  , 63.2553000  , 56.1295000 , 60.8063000 , -40.3580000, -10.7240000, 6.1700000  , 0.000000,       0,       0,       0
 3.270, 0.3918000 , 0.4354000  , 9.1743000  , 61.6226000  , 58.0902000 , 60.8444000 , -40.5470000, -10.2750000, 6.4900000  , 0.000000,       0,       0,       0
 3.280, 0.3846000 , 0.4689000  , 9.1528000  , 59.8221000  , 60.0815000 , 60.7681000 , -40.2870000, -10.5090000, 5.9870000  , 0.000000,       0,       0,       0
 3.290, 0.3511000 , 0.5024000  , 9.1959000  , 58.1360000  , 61.7523000 , 60.7834000 , -40.4200000, -10.8520000, 5.7070000  , 0.000000,       0,       0,       0
 3.300, 0.2973000 , 0.5276000  , 9.2772000  , 56.9229000  , 62.8967000 , 61.0580000 , -40.5740000, -10.6180000, 5.7580000  , 0.000000,       0,       0,       0
 3.310, 0.2422000 , 0.5228000  , 9.3681000  , 56.3812000  , 63.5834000 , 61.5921000 , -40.3360000, -10.2360000, 6.0910000  , 0.000000,       0,       0,       0
 3.320, 0.1944000 , 0.5036000  , 9.4650000  , 56.4880000  , 63.7894000 , 62.1948000 , -40.5350000, -10.5870000, 5.9060000  , 0.000000,       0,       0,       0
 3.330, 0.1597000 , 0.4713000  , 9.5524000  , 57.1518000  , 63.5223000 , 62.6602000 , -40.4790000, -10.6100000, 6.1700000  , 0.000000,       0,       0,       0
 3.340, 0.1370000 , 0.4378000  , 9.6170000  , 58.2275000  , 62.9730000 , 62.8967000 , -40.7130000, -10.7360000, 5.8670000  , 0.000000,       0,       0,       0
 3.350, 0.1430000 , 0.4151000  , 9.6636000  , 59.9594000  , 62.0804000 , 63.0112000 , -40.5670000, -10.6460000, 6.8590000  , 0.000000,       0,       0,       0
 3.360, 0.1669000 , 0.4163000  , 9.6720000  , 60.7071000  , 61.7142000 , 62.9807000 , -40.5270000, -10.6570000, 6.7860000  , 0.000000,       0,       0,       0
 3.370, 0.1884000 , 0.4235000  , 9.6780000  , 60.9894000  , 61.5387000 , 62.8967000 , -40.5430000, -10.6660000, 5.8470000  , 0.000000,       0,       0,       0
 3.380, 0.1968000 , 0.4235000  , 9.6852000  , 60.8902000  , 61.4929000 , 62.8815000 , -40.6630000, -10.6350000, 6.1140000  , 0.000000,       0,       0,       0
 3.390, 0.1968000 , 0.4199000  , 9.6911000  , 60.6308000  , 61.4700000 , 62.9959000 , -40.3770000, -10.9100000, 5.8630000  , 0.000000,       0,       0,       0
 3.400, 0.1980000 , 0.4067000  , 9.6911000  , 60.4553000  , 61.4243000 , 63.2172000 , -40.6890000, -10.7620000, 6.0130000  , 0.000000,       0,       0,       0
 3.410, 0.2040000 , 0.3816000  , 9.6780000  , 60.4706000  , 61.3708000 , 63.4842000 , -40.7350000, -10.7230000, 6.2370000  , 0.000000,       0,       0,       0
 3.420, 0.2159000 , 0.3541000  , 9.6541000  , 60.6155000  , 61.2793000 , 63.6368000 , -40.9450000, -10.7250000, 6.3870000  , 0.000000,       0,       0,       0
 3.430, 0.2315000 , 0.3362000  , 9.6277000  , 60.7071000  , 61.2335000 , 63.5757000 , -40.3310000, -10.5540000, 6.0210000  , 0.000000,       0,       0,       0
 3.440, 0.2411000 , 0.3242000  , 9.6134000  , 60.6537000  , 61.3403000 , 63.3087000 , -40.2640000, -10.7380000, 6.0840000  , 0.000000,       0,       0,       0
 3.450, 0.2411000 , 0.3194000  , 9.6206000  , 60.4706000  , 61.5616000 , 62.9654000 , -40.1830000, -10.6420000, 6.1960000  , 0.000000,       0,       0,       0
 3.460, 0.2315000 , 0.3182000  , 9.6505000  , 60.2951000  , 61.7981000 , 62.6984000 , -40.4190000, -10.9010000, 6.3670000  , 0.000000,       0,       0,       0
 3.470, 0.2219000 , 0.3134000  , 9.6852000  , 60.2493000  , 61.8820000 , 62.6068000 , -40.4860000, -10.8170000, 5.9400000  , 0.000000,       0,       0,       0
 3.480, 0.2207000 , 0.3074000  , 9.6947000  , 60.3485000  , 61.7294000 , 62.6526000 , -40.6270000, -10.5860000, 6.3160000  , 0.000000,       0,       0,       0
 3.490, 0.2219000 , 0.3086000  , 9.6720000  , 60.4706000  , 61.4624000 , 62.7747000 , -40.3660000, -10.5900000, 6.1570000  , 0.000000,       0,       0,       0
 3.500, 0.2207000 , 0.3290000  , 9.6385000  , 60.5545000  , 61.2335000 , 62.9349000 , -40.4040000, -10.4690000, 5.9280000  , 0.000000,       0,       0,       0
 3.510, 0.2207000 , 0.3505000  , 9.6086000  , 60.6613000  , 61.1420000 , 63.1332000 , -40.4410000, -10.7500000, 6.0330000  , 0.000000,       0,       0,       0
 3.520, 0.2207000 , 0.3649000  , 9.5930000  , 60.7376000  , 61.1496000 , 63.3621000 , -40.4660000, -10.7170000, 5.5900000  , 0.000000,       0,       0,       0
 3.530, 0.2231000 , 0.3804000  , 9.5966000  , 60.6155000  , 61.2564000 , 63.4689000 , -40.3780000, -10.9100000, 6.3150000  , 0.000000,       0,       0,       0
 3.540, 0.2183000 , 0.3900000  , 9.6253000  , 60.2188000  , 61.4777000 , 63.3240000 , -40.4900000, -10.9580000, 5.9760000  , 0.000000,       0,       0,       0
 3.550, 0.2064000 , 0.3840000  , 9.6708000  , 59.7000000  , 61.6684000 , 63.0417000 , -40.3920000, -10.7810000, 6.2080000  , 0.000000,       0,       0,       0
 3.560, 0.1872000 , 0.3661000  , 9.7043000  , 59.3262000  , 61.6989000 , 62.7823000 , -40.6390000, -10.7840000, 5.4860000  , 0.000000,       0,       0,       0
 3.570, 0.1717000 , 0.3445000  , 9.7163000  , 59.3643000  , 61.6150000 , 62.6450000 , -40.3920000, -10.8870000, 5.8500000  , 0.000000,       0,       0,       0
 3.580, 0.1633000 , 0.3314000  , 9.7079000  , 59.8068000  , 61.3556000 , 62.7213000 , -40.4320000, -10.9570000, 5.9540000  , 0.000000,       0,       0,       0
 3.590, 0.1681000 , 0.3409000  , 9.6816000  , 60.4858000  , 61.0199000 , 62.9196000 , -40.3980000, -10.7360000, 6.2460000  , 0.000000,       0,       0,       0
 3.600, 0.1765000 , 0.3649000  , 9.6529000  , 61.1877000  , 60.8215000 , 63.0341000 , -40.1840000, -10.8660000, 6.0940000  , 0.000000,       0,       0,       0
 3.610, 0.1884000 , 0.3984000  , 9.6361000  , 61.5768000  , 60.7986000 , 62.9578000 , -40.4320000, -10.6770000, 6.0270000  , 0.000000,       0,       0,       0
 3.620, 0.1968000 , 0.4402000  , 9.6337000  , 61.3327000  , 60.9970000 , 62.6907000 , -40.4640000, -10.8740000, 5.8190000  , 0.000000,       0,       0,       0
 3.630, 0.1980000 , 0.4701000  , 9.6493000  , 60.4324000  , 61.5540000 , 62.3245000 , -40.5160000, -10.9690000, 5.9730000  , 0.000000,       0,       0,       0
 3.640, 0.1980000 , 0.4833000  , 9.6852000  , 59.1812000  , 62.2406000 , 61.9812000 , -40.3810000, -10.9060000, 5.8550000  , 0.000000,       0,       0,       0
 3.650, 0.1920000 , 0.4713000  , 9.7258000  , 58.1894000  , 62.6831000 , 61.7142000 , -40.0730000, -10.8180000, 5.6980000  , 0.000000,       0,       0,       0
 3.660, 0.1812000 , 0.4366000  , 9.7438000  , 57.9224000  , 62.7289000 , 61.5692000 , -40.2600000, -10.7060000, 6.0110000  , 0.000000,       0,       0,       0
 3.670, 0.1788000 , 0.4008000  , 9.7187000  , 58.4183000  , 62.3627000 , 61.5158000 , -40.2560000, -10.9310000, 6.5900000  , 0.000000,       0,       0,       0
 3.680, 0.1848000 , 0.3852000  , 9.6600000  , 59.3491000  , 61.8362000 , 61.5005000 , -40.5850000, -10.9170000, 6.0420000  , 0.000000,       0,       0,       0
 3.690, 0.2004000 , 0.3984000  , 9.5978000  , 60.2341000  , 61.4090000 , 61.5387000 , -40.4490000, -10.5650000, 5.8430000  , 0.000000,       0,       0,       0
 3.700, 0.2183000 , 0.4319000  , 9.5560000  , 60.7300000  , 61.2259000 , 61.6531000 , -40.5760000, -10.9150000, 5.5620000  , 0.000000,       0,       0,       0
 3.710, 0.2267000 , 0.4630000  , 9.5524000  , 60.8063000  , 61.3098000 , 61.9125000 , -40.4080000, -10.7950000, 5.3460000  , 0.000000,       0,       0,       0
 3.720, 0.2291000 , 0.4737000  , 9.5859000  , 60.5850000  , 61.5005000 , 62.3398000 , -40.1610000, -10.5690000, 6.1700000  , 0.000000,       0,       0,       0
 3.730, 0.2279000 , 0.4618000  , 9.6301000  , 60.1807000  , 61.6379000 , 62.7747000 , -40.4610000, -10.5550000, 6.0480000  , 0.000000,       0,       0,       0
 3.740, 0.2147000 , 0.4378000  , 9.6696000  , 59.8068000  , 61.7142000 , 62.9883000 , -40.4800000, -10.6100000, 5.7440000  , 0.000000,       0,       0,       0
 3.750, 0.1884000 , 0.4055000  , 9.7019000  , 59.7000000  , 61.6684000 , 62.9578000 , -40.0970000, -10.6920000, 6.2870000  , 0.000000,       0,       0,       0
 3.760, 0.1561000 , 0.3792000  , 9.7163000  , 59.9289000  , 61.4319000 , 62.8357000 , -40.5110000, -10.4110000, 5.7440000  , 0.000000,       0,       0,       0
 3.770, 0.1322000 , 0.3732000  , 9.7043000  , 60.3333000  , 61.1038000 , 62.6755000 , -40.4610000, -10.2740000, 5.3390000  , 0.000000,       0,       0,       0
 3.780, 0.1214000 , 0.3804000  , 9.6768000  , 60.7376000  , 60.8063000 , 62.5305000 , -40.6010000, -10.8460000, 5.8270000  , 0.000000,       0,       0,       0
 3.790, 0.1238000 , 0.3900000  , 9.6409000  , 60.9360000  , 60.6003000 , 62.4771000 , -40.4250000, -10.8130000, 5.7130000  , 0.000000,       0,       0,       0
 3.800, 0.1334000 , 0.3996000  , 9.6086000  , 60.8139000  , 60.5927000 , 62.5229000 , -40.3560000, -10.9020000, 5.7500000  , 0.000000,       0,       0,       0
 3.810, 0.1453000 , 0.4031000  , 9.6002000  , 60.3790000  , 60.7986000 , 62.6373000 , -40.5360000, -10.8740000, 5.8610000  , 0.000000,       0,       0,       0
 3.820, 0.1549000 , 0.3900000  , 9.6146000  , 59.7916000  , 61.0504000 , 62.7441000 , -40.5270000, -11.1380000, 6.0730000  , 0.000000,       0,       0,       0
 3.830, 0.1633000 , 0.3601000  , 9.6337000  , 59.3719000  , 61.2030000 , 62.7213000 , -40.2920000, -10.9610000, 5.3340000  , 0.000000,       0,       0,       0
 3.840, 0.1693000 , 0.3314000  , 9.6481000  , 59.2499000  , 61.2335000 , 62.5076000 , -40.2350000, -10.8170000, 5.5070000  , 0.000000,       0,       0,       0
 3.850, 0.1848000 , 0.3206000  , 9.6493000  , 59.3414000  , 61.1572000 , 62.1567000 , -40.3680000, -11.0220000, 6.3970000  , 0.000000,       0,       0,       0
 3.860, 0.2052000 , 0.3230000  , 9.6337000  , 59.4559000  , 61.0962000 , 61.7523000 , -40.4990000, -10.9670000, 6.0830000  , 0.000000,       0,       0,       0
 3.870, 0.2303000 , 0.3397000  , 9.6122000  , 59.4864000  , 61.1038000 , 61.4090000 , -40.5010000, -10.6950000, 5.4140000  , 0.000000,       0,       0,       0
 3.880, 0.2470000 , 0.3613000  , 9.6074000  , 59.3796000  , 61.3098000 , 61.2183000 , -40.6870000, -10.9180000, 6.2460000  , 0.000000,       0,       0,       0
 3.890, 0.2518000 , 0.3744000  , 9.6325000  , 59.1736000  , 61.4929000 , 61.3251000 , -40.3350000, -10.9310000, 6.3100000  , 0.000000,       0,       0,       0
 3.900, 0.2458000 , 0.3780000  , 9.6708000  , 58.9218000  , 61.6150000 , 61.6379000 , -40.5010000, -10.8680000, 5.9760000  , 0.000000,       0,       0,       0
 3.910, 0.2339000 , 0.3685000  , 9.7067000  , 58.7082000  , 61.6760000 , 61.8896000 , -40.5390000, -10.9290000, 6.4520000  , 0.000000,       0,       0,       0
 3.920, 0.2195000 , 0.3505000  , 9.7282000  , 58.4946000  , 61.7371000 , 61.9431000 , -40.4720000, -10.8680000, 6.6870000  , 0.000000,       0,       0,       0
 3.930, 0.2064000 , 0.3338000  , 9.7354000  , 58.2123000  , 61.8134000 , 61.7371000 , -40.5010000, -10.6450000, 6.2900000  , 0.000000,       0,       0,       0
 3.940, 0.1920000 , 0.3218000  , 9.7282000  , 57.9605000  , 61.9583000 , 61.2564000 , -40.5950000, -10.7830000, 6.2380000  , 0.000000,       0,       0,       0
 3.950, 0.1776000 , 0.3230000  , 9.7210000  , 57.9224000  , 62.0804000 , 60.6384000 , -40.4640000, -10.4280000, 5.9670000  , 0.000000,       0,       0,       0
 3.960, 0.1645000 , 0.3374000  , 9.7151000  , 58.0597000  , 62.0728000 , 60.1578000 , -40.4370000, -10.9040000, 6.1030000  , 0.000000,       0,       0,       0
 3.970, 0.1513000 , 0.3732000  , 9.7007000  , 58.3115000  , 61.8668000 , 59.9670000 , -40.1440000, -10.4460000, 5.9830000  , 0.000000,       0,       0,       0
 3.980, 0.1501000 , 0.3780000  , 9.6887000  , 58.4717000  , 61.6226000 , 60.1196000 , -40.5850000, -10.4850000, 5.6760000  , 0.000000,       0,       0,       0
 3.990, 0.1513000 , 0.3697000  , 9.6684000  , 58.7311000  , 61.2030000 , 60.2341000 , -40.1460000, -10.4750000, 5.5650000  , 0.000000,       0,       0,       0
 4.000, 0.1549000 , 0.3613000  , 9.6385000  , 59.0973000  , 60.7147000 , 60.1196000 , -40.4380000, -10.4810000, 5.6630000  , 0.000000,       0,       0,       0
 4.010, 0.1561000 , 0.3649000  , 9.6122000  , 59.4559000  , 60.3256000 , 59.8679000 , -40.5590000, -10.6390000, 6.0100000  , 0.000000,       0,       0,       0
 4.020, 0.1549000 , 0.3984000  , 9.5954000  , 59.5779000  , 60.0586000 , 59.6924000 , -40.4600000, -10.9420000, 5.3090000  , 0.000000,       0,       0,       0
 4.030, 0.1561000 , 0.4594000  , 9.5942000  , 59.3948000  , 60.0357000 , 59.7305000 , -40.1820000, -10.4260000, 5.9950000  , 0.000000,       0,       0,       0
 4.040, 0.1621000 , 0.5240000  , 9.6026000  , 59.0286000  , 60.2493000 , 60.1883000 , -40.3340000, -10.6150000, 6.2400000  , 0.000000,       0,       0,       0
 4.050, 0.1681000 , 0.5790000  , 9.6206000  , 58.6472000  , 60.6613000 , 61.1267000 , -40.3050000, -10.4770000, 6.0090000  , 0.000000,       0,       0,       0
 4.060, 0.1765000 , 0.6077000  , 9.6505000  , 58.3725000  , 61.0580000 , 62.5000000 , -40.3140000, -10.7090000, 6.3350000  , 0.000000,       0,       0,       0
 4.070, 0.1932000 , 0.5969000  , 9.6840000  , 58.2123000  , 61.3556000 , 64.1022000 , -40.1200000, -10.5720000, 6.4720000  , 0.000000,       0,       0,       0
 4.080, 0.2123000 , 0.5479000  , 9.7139000  , 58.1360000  , 61.4929000 , 65.5365000 , -40.4040000, -10.4330000, 6.2650000  , 0.000000,       0,       0,       0
 4.090, 0.2339000 , 0.4713000  , 9.7354000  , 58.0292000  , 61.4395000 , 66.4291000 , -40.5370000, -10.3580000, 5.9940000  , 0.000000,       0,       0,       0
 4.100, 0.2434000 , 0.3816000  , 9.7438000  , 57.9529000  , 61.1649000 , 66.6351000 , -40.2360000, -10.6370000, 6.1130000  , 0.000000,       0,       0,       0
 4.110, 0.2458000 , 0.3182000  , 9.7414000  , 58.0444000  , 60.8292000 , 66.1392000 , -40.4460000, -10.8270000, 6.0090000  , 0.000000,       0,       0,       0
 4.120, 0.2399000 , 0.2919000  , 9.7342000  , 58.4259000  , 60.5316000 , 65.1474000 , -40.2960000, -10.6840000, 6.1970000  , 0.000000,       0,       0,       0
 4.130, 0.2291000 , 0.2979000  , 9.7246000  , 59.0439000  , 60.2036000 , 64.0488000 , -40.2550000, -10.6930000, 5.7280000  , 0.000000,       0,       0,       0
 4.140, 0.2159000 , 0.3326000  , 9.7031000  , 59.7153000  , 59.9365000 , 63.1561000 , -40.4170000, -11.2710000, 5.8960000  , 0.000000,       0,       0,       0
 4.150, 0.2040000 , 0.3852000  , 9.6768000  , 60.2493000  , 59.8984000 , 62.5305000 , -40.2510000, -10.9030000, 5.6870000  , 0.000000,       0,       0,       0
 4.160, 0.1944000 , 0.4307000  , 9.6588000  , 60.4630000  , 60.1883000 , 62.1567000 , -40.4470000, -10.9580000, 5.1960000  , 0.000000,       0,       0,       0
 4.170, 0.1884000 , 0.4534000  , 9.6517000  , 60.3333000  , 60.6384000 , 61.8820000 , -40.3740000, -10.7770000, 5.4290000  , 0.000000,       0,       0,       0
 4.180, 0.1884000 , 0.4558000  , 9.6433000  , 59.9518000  , 60.9970000 , 61.5768000 , -40.5920000, -10.5430000, 6.1120000  , 0.000000,       0,       0,       0
 4.190, 0.1908000 , 0.4474000  , 9.6313000  , 59.4635000  , 61.2335000 , 61.2106000 , -40.6880000, -10.6670000, 6.1810000  , 0.000000,       0,       0,       0
 4.200, 0.1932000 , 0.4366000  , 9.6146000  , 59.0439000  , 61.3480000 , 60.9283000 , -40.4580000, -10.9830000, 5.7920000  , 0.000000,       0,       0,       0
 4.210, 0.1992000 , 0.4283000  , 9.5918000  , 58.7692000  , 61.5005000 , 60.9283000 , -40.4550000, -10.8440000, 5.2870000  , 0.000000,       0,       0,       0
 4.220, 0.2111000 , 0.4283000  , 9.5727000  , 58.6090000  , 61.8057000 , 61.3251000 , -40.3960000, -11.0360000, 5.4730000  , 0.000000,       0,       0,       0
 4.230, 0.2207000 , 0.4235000  , 9.5787000  , 58.4106000  , 62.2101000 , 62.0270000 , -40.3610000, -10.9650000, 6.1460000  , 0.000000,       0,       0,       0
 4.240, 0.2303000 , 0.4103000  , 9.6098000  , 58.0444000  , 62.5839000 , 62.7975000 , -40.3720000, -11.1560000, 5.8360000  , 0.000000,       0,       0,       0
 4.250, 0.2327000 , 0.3888000  , 9.6552000  , 57.5714000  , 62.8662000 , 63.3698000 , -40.3810000, -11.0430000, 5.1940000  , 0.000000,       0,       0,       0
 4.260, 0.2279000 , 0.3553000  , 9.7019000  , 57.1060000  , 63.0646000 , 63.6749000 , -40.3980000, -11.0690000, 6.2600000  , 0.000000,       0,       0,       0
 4.270, 0.2183000 , 0.3170000  , 9.7330000  , 56.8237000  , 63.0646000 , 63.7589000 , -40.2430000, -10.7740000, 5.4050000  , 0.000000,       0,       0,       0
 4.280, 0.2076000 , 0.2835000  , 9.7390000  , 56.8085000  , 62.9196000 , 63.6902000 , -40.3270000, -10.7940000, 5.0950000  , 0.000000,       0,       0,       0
 4.290, 0.1944000 , 0.2572000  , 9.7246000  , 57.0602000  , 62.6907000 , 63.5605000 , -40.3490000, -10.8880000, 5.2100000  , 0.000000,       0,       0,       0
 4.300, 0.1776000 , 0.2393000  , 9.6959000  , 57.4875000  , 62.4466000 , 63.4155000 , -40.6160000, -10.8970000, 5.5150000  , 0.000000,       0,       0,       0
 4.310, 0.1621000 , 0.2333000  , 9.6684000  , 57.9071000  , 62.2711000 , 63.3545000 , -40.3230000, -10.7190000, 5.1680000  , 0.000000,       0,       0,       0
 4.320, 0.1501000 , 0.2357000  , 9.6505000  , 58.2047000  , 62.1719000 , 63.3545000 , -40.4480000, -10.9810000, 5.2930000  , 0.000000,       0,       0,       0
 4.330, 0.1453000 , 0.2369000  , 9.6481000  , 58.5098000  , 62.0728000 , 63.3392000 , -40.5380000, -10.9110000, 5.3720000  , 0.000000,       0,       0,       0
 4.340, 0.1430000 , 0.2405000  , 9.6576000  , 58.9066000  , 61.8973000 , 63.3163000 , -40.4090000, -10.8330000, 6.1510000  , 0.000000,       0,       0,       0
 4.350, 0.1430000 , 0.2512000  , 9.6672000  , 59.3033000  , 61.7447000 , 63.2858000 , -40.4510000, -10.8540000, 5.2400000  , 0.000000,       0,       0,       0
 4.360, 0.1430000 , 0.2596000  , 9.6744000  , 59.6008000  , 61.6302000 , 63.1943000 , -40.4120000, -10.6780000, 6.5840000  , 0.000000,       0,       0,       0
 4.370, 0.1430000 , 0.2632000  , 9.6780000  , 59.7305000  , 61.5234000 , 62.9959000 , -40.3030000, -10.6770000, 5.5420000  , 0.000000,       0,       0,       0
 4.380, 0.1537000 , 0.2728000  , 9.6648000  , 59.7000000  , 61.4548000 , 62.6678000 , -40.3230000, -10.5820000, 5.7400000  , 0.000000,       0,       0,       0
 4.390, 0.1741000 , 0.2847000  , 9.6325000  , 59.5551000  , 61.3632000 , 62.1719000 , -40.1190000, -10.8210000, 5.1620000  , 0.000000,       0,       0,       0
 4.400, 0.1980000 , 0.2991000  , 9.5906000  , 59.3643000  , 61.2946000 , 61.6760000 , -40.3950000, -11.0850000, 5.8330000  , 0.000000,       0,       0,       0
 4.410, 0.2195000 , 0.3146000  , 9.5476000  , 59.1049000  , 61.3327000 , 61.4090000 , -40.6520000, -10.7900000, 5.8810000  , 0.000000,       0,       0,       0
 4.420, 0.2303000 , 0.3218000  , 9.5177000  , 58.8455000  , 61.5616000 , 61.4700000 , -40.3800000, -10.9110000, 5.5710000  , 0.000000,       0,       0,       0
 4.430, 0.2267000 , 0.3074000  , 9.5153000  , 58.7158000  , 61.9202000 , 61.8439000 , -40.2210000, -10.8040000, 5.8500000  , 0.000000,       0,       0,       0
 4.440, 0.2099000 , 0.2799000  , 9.5464000  , 58.8837000  , 62.1796000 , 62.4008000 , -40.2890000, -10.8790000, 6.0090000  , 0.000000,       0,       0,       0
 4.450, 0.1848000 , 0.2524000  , 9.5990000  , 59.3338000  , 62.2330000 , 62.9044000 , -40.1820000, -10.7780000, 5.6730000  , 0.000000,       0,       0,       0
 4.460, 0.1561000 , 0.2345000  , 9.6505000  , 59.8984000  , 62.0499000 , 63.2401000 , -40.3230000, -10.9260000, 6.0410000  , 0.000000,       0,       0,       0
 4.470, 0.1358000 , 0.2393000  , 9.6804000  , 60.3027000  , 61.7828000 , 63.3850000 , -40.2030000, -10.9430000, 5.8750000  , 0.000000,       0,       0,       0
 4.480, 0.1262000 , 0.2560000  , 9.6864000  , 60.3790000  , 61.6455000 , 63.3545000 , -40.4800000, -10.7620000, 5.8410000  , 0.000000,       0,       0,       0
 4.490, 0.1250000 , 0.2704000  , 9.6804000  , 60.2417000  , 61.6302000 , 63.2248000 , -40.4250000, -10.6620000, 6.0780000  , 0.000000,       0,       0,       0
 4.500, 0.1298000 , 0.2811000  , 9.6672000  , 60.1349000  , 61.6379000 , 63.1256000 , -40.5770000, -10.7220000, 6.4410000  , 0.000000,       0,       0,       0
 4.510, 0.1358000 , 0.2907000  , 9.6588000  , 60.2036000  , 61.6684000 , 63.1714000 , -40.0990000, -10.8020000, 5.3830000  , 0.000000,       0,       0,       0
 4.520, 0.1442000 , 0.2979000  , 9.6564000  , 60.5011000  , 61.6837000 , 63.4003000 , -40.2550000, -11.0520000, 5.6790000  , 0.000000,       0,       0,       0
 4.530, 0.1561000 , 0.2991000  , 9.6541000  , 60.9512000  , 61.6302000 , 63.7589000 , -40.3490000, -10.4860000, 5.5580000  , 0.000000,       0,       0,       0
 4.540, 0.1693000 , 0.3074000  , 9.6469000  , 61.3785000  , 61.5845000 , 64.1022000 , -40.3600000, -10.4970000, 5.8020000  , 0.000000,       0,       0,       0
 4.550, 0.1836000 , 0.3266000  , 9.6421000  , 61.6226000  , 61.5768000 , 64.3082000 , -40.3440000, -10.4940000, 6.2950000  , 0.000000,       0,       0,       0
 4.560, 0.2052000 , 0.3649000  , 9.6517000  , 61.4319000  , 61.6989000 , 64.3005000 , -40.0200000, -10.5220000, 6.7520000  , 0.000000,       0,       0,       0
 4.570, 0.2123000 , 0.3900000  , 9.6756000  , 60.9207000  , 61.9812000 , 64.1479000 , -40.0250000, -11.1220000, 6.5200000  , 0.000000,       0,       0,       0
 4.580, 0.2088000 , 0.3972000  , 9.7127000  , 60.2341000  , 62.3322000 , 63.9420000 , -40.4400000, -10.7920000, 6.7870000  , 0.000000,       0,       0,       0
 4.590, 0.1956000 , 0.3780000  , 9.7521000  , 59.5474000  , 62.5305000 , 63.7665000 , -40.2120000, -10.7280000, 6.2860000  , 0.000000,       0,       0,       0
 4.600, 0.1836000 , 0.3433000  , 9.7713000  , 59.0897000  , 62.4390000 , 63.6215000 , -39.9340000, -11.0170000, 6.2830000  , 0.000000,       0,       0,       0
 4.610, 0.1693000 , 0.3039000  , 9.7677000  , 59.0439000  , 62.1719000 , 63.4842000 , -40.2430000, -10.9180000, 5.8430000  , 0.000000,       0,       0,       0
 4.620, 0.1585000 , 0.2644000  , 9.7438000  , 59.3491000  , 61.7447000 , 63.3774000 , -40.2460000, -10.8280000, 6.2590000  , 0.000000,       0,       0,       0
 4.630, 0.1585000 , 0.2405000  , 9.6995000  , 59.8526000  , 61.1801000 , 63.2782000 , -40.3420000, -11.0170000, 6.3790000  , 0.000000,       0,       0,       0
 4.640, 0.1657000 , 0.2452000  , 9.6421000  , 60.3409000  , 60.6766000 , 63.0722000 , -40.1950000, -10.8340000, 5.0740000  , 0.000000,       0,       0,       0
 4.650, 0.1717000 , 0.2740000  , 9.5871000  , 60.5850000  , 60.3790000 , 62.6984000 , -40.2310000, -10.6760000, 5.0730000  , 0.000000,       0,       0,       0
 4.660, 0.1717000 , 0.3134000  , 9.5476000  , 60.4782000  , 60.3790000 , 62.2482000 , -40.1790000, -11.0050000, 5.4930000  , 0.000000,       0,       0,       0
 4.670, 0.1609000 , 0.3457000  , 9.5344000  , 60.0891000  , 60.6842000 , 61.8668000 , -40.1700000, -10.7360000, 5.7850000  , 0.000000,       0,       0,       0
 4.680, 0.1477000 , 0.3613000  , 9.5452000  , 59.6161000  , 61.1038000 , 61.6531000 , -40.6150000, -10.8170000, 5.5030000  , 0.000000,       0,       0,       0
 4.690, 0.1346000 , 0.3649000  , 9.5751000  , 59.3338000  , 61.4319000 , 61.5768000 , -40.4670000, -10.6610000, 5.5340000  , 0.000000,       0,       0,       0
 4.700, 0.1226000 , 0.3625000  , 9.6086000  , 59.3948000  , 61.5463000 , 61.6760000 , -40.2700000, -10.7940000, 5.1340000  , 0.000000,       0,       0,       0
 4.710, 0.1178000 , 0.3708000  , 9.6349000  , 59.6924000  , 61.4777000 , 62.0041000 , -40.3440000, -11.0270000, 5.2220000  , 0.000000,       0,       0,       0
 4.720, 0.1214000 , 0.3876000  , 9.6564000  , 59.9747000  , 61.4319000 , 62.5305000 , -40.2550000, -10.8790000, 5.7130000  , 0.000000,       0,       0,       0
 4.730, 0.1322000 , 0.3996000  , 9.6732000  , 60.0510000  , 61.4853000 , 63.1027000 , -39.7010000, -10.8190000, 6.8670000  , 0.000000,       0,       0,       0
 4.740, 0.1489000 , 0.4020000  , 9.6887000  , 59.9136000  , 61.6302000 , 63.4689000 , -40.1570000, -10.9460000, 6.4270000  , 0.000000,       0,       0,       0
 4.750, 0.1621000 , 0.3924000  , 9.7031000  , 59.6695000  , 61.8057000 , 63.5147000 , -40.4370000, -10.6670000, 6.2570000  , 0.000000,       0,       0,       0
 4.760, 0.1681000 , 0.3756000  , 9.7115000  , 59.4177000  , 61.9202000 , 63.3316000 , -40.1260000, -11.1450000, 6.5720000  , 0.000000,       0,       0,       0
 4.770, 0.1705000 , 0.3601000  , 9.7103000  , 59.2499000  , 61.9659000 , 63.0188000 , -40.3360000, -11.1890000, 6.3560000  , 0.000000,       0,       0,       0
 4.780, 0.1693000 , 0.3481000  , 9.7043000  , 59.2117000  , 61.9202000 , 62.7213000 , -40.2490000, -10.8730000, 6.5470000  , 0.000000,       0,       0,       0
 4.790, 0.1657000 , 0.3385000  , 9.6995000  , 59.3491000  , 61.7752000 , 62.5381000 , -40.3760000, -11.0100000, 5.9990000  , 0.000000,       0,       0,       0
 4.800, 0.1669000 , 0.3326000  , 9.6911000  , 59.6542000  , 61.4777000 , 62.4466000 , -40.1780000, -10.8450000, 6.3320000  , 0.000000,       0,       0,       0
 4.810, 0.1717000 , 0.3278000  , 9.6732000  , 60.0357000  , 61.1115000 , 62.3703000 , -40.2020000, -11.1360000, 6.4690000  , 0.000000,       0,       0,       0
 4.820, 0.1848000 , 0.3254000  , 9.6421000  , 60.4019000  , 60.7681000 , 62.3322000 , -40.5270000, -10.8870000, 6.4630000  , 0.000000,       0,       0,       0
 4.830, 0.1956000 , 0.3350000  , 9.6110000  , 60.7300000  , 60.6689000 , 62.3856000 , -40.1340000, -10.6720000, 6.2940000  , 0.000000,       0,       0,       0
 4.840, 0.2064000 , 0.3529000  , 9.5966000  , 60.8597000  , 60.8673000 , 62.5839000 , -40.2560000, -10.9650000, 6.3620000  , 0.000000,       0,       0,       0
 4.850, 0.2135000 , 0.3637000  , 9.6038000  , 60.6995000  , 61.2106000 , 62.9196000 , -40.3410000, -11.1240000, 6.1440000  , 0.000000,       0,       0,       0
 4.860, 0.2207000 , 0.3637000  , 9.6229000  , 60.3867000  , 61.4929000 , 63.2858000 , -40.4480000, -10.9080000, 6.4020000  , 0.000000,       0,       0,       0
 4.870, 0.2291000 , 0.3589000  , 9.6457000  , 60.1501000  , 61.5997000 , 63.5529000 , -40.0560000, -10.9390000, 6.4610000  , 0.000000,       0,       0,       0
 4.880, 0.2363000 , 0.3685000  , 9.6600000  , 60.0662000  , 61.5005000 , 63.6597000 , -40.2160000, -10.6540000, 6.1570000  , 0.000000,       0,       0,       0
 4.890, 0.2387000 , 0.3924000  , 9.6636000  , 59.9976000  , 61.3403000 , 63.7283000 , -40.1710000, -10.8530000, 5.8020000  , 0.000000,       0,       0,       0
 4.900, 0.2291000 , 0.4139000  , 9.6636000  , 59.7763000  , 61.3251000 , 63.8809000 , -40.1230000, -10.9550000, 5.7710000  , 0.000000,       0,       0,       0
 4.910, 0.2099000 , 0.4175000  , 9.6708000  , 59.3567000  , 61.4624000 , 64.1174000 , -40.2150000, -10.8680000, 6.2030000  , 0.000000,       0,       0,       0
 4.920, 0.1848000 , 0.3984000  , 9.6840000  , 58.8150000  , 61.6379000 , 64.3234000 , -40.3500000, -10.9030000, 6.2390000  , 0.000000,       0,       0,       0
 4.930, 0.1621000 , 0.3469000  , 9.6983000  , 58.2886000  , 61.7905000 , 64.3768000 , -40.0470000, -11.1960000, 5.5940000  , 0.000000,       0,       0,       0
 4.940, 0.1418000 , 0.2775000  , 9.7139000  , 57.9147000  , 61.8286000 , 64.2395000 , -40.4200000, -11.4900000, 5.9270000  , 0.000000,       0,       0,       0
 4.950, 0.1238000 , 0.2129000  , 9.7198000  , 57.7240000  , 61.7523000 , 63.8885000 , -39.7660000, -10.8770000, 5.8070000  , 0.000000,       0,       0,       0
 4.960, 0.1142000 , 0.1579000  , 9.6971000  , 57.8613000  , 61.6684000 , 63.2324000 , -40.1610000, -11.0440000, 6.7800000  , 0.000000,       0,       0,       0
 4.970, 0.1083000 , 0.1268000  , 9.6612000  , 58.4183000  , 61.5082000 , 62.3856000 , -40.0680000, -10.9650000, 5.8070000  , 0.000000,       0,       0,       0
 4.980, 0.1107000 , 0.1400000  , 9.6241000  , 59.1965000  , 61.1877000 , 61.6913000 , -39.8270000, -11.0960000, 6.6360000  , 0.000000,       0,       0,       0
 4.990, 0.1083000 , 0.1890000  , 9.5930000  , 59.9594000  , 60.9207000 , 61.3708000 , -39.9880000, -11.0010000, 6.0410000  , 0.000000,       0,       0,       0
 5.000, 0.0999000 , 0.2369000  , 9.5847000  , 60.5392000  , 60.9207000 , 61.4777000 , -39.9660000, -11.0850000, 5.6050000  , 0.000000,       0,       0,       0
 5.010, 0.0855000 , 0.2692000  , 9.6038000  , 60.8749000  , 61.1572000 , 61.9812000 , -40.1630000, -11.0310000, 5.9850000  , 0.000000,       0,       0,       0
 5.020, 0.0772000 , 0.2859000  , 9.6349000  , 60.9360000  , 61.3022000 , 62.6602000 , -40.5920000, -11.2110000, 6.4700000  , 0.000000,       0,       0,       0
 5.030, 0.0807000 , 0.2871000  , 9.6600000  , 60.7071000  , 61.2640000 , 63.2172000 , -40.0450000, -11.1010000, 6.0220000  , 0.000000,       0,       0,       0
 5.040, 0.0927000 , 0.2811000  , 9.6696000  , 60.2951000  , 61.2335000 , 63.4613000 , -40.0520000, -11.0700000, 6.1890000  , 0.000000,       0,       0,       0
 5.050, 0.1130000 , 0.2751000  , 9.6672000  , 59.9060000  , 61.2335000 , 63.4155000 , -40.0840000, -11.0100000, 6.3410000  , 0.000000,       0,       0,       0
 5.060, 0.1418000 , 0.2823000  , 9.6636000  , 59.6695000  , 61.2106000 , 63.1790000 , -39.8880000, -10.8980000, 6.2640000  , 0.000000,       0,       0,       0
 5.070, 0.1693000 , 0.3051000  , 9.6636000  , 59.5703000  , 61.1801000 , 62.8815000 , -40.2520000, -11.0560000, 6.1770000  , 0.000000,       0,       0,       0
 5.080, 0.1848000 , 0.3302000  , 9.6732000  , 59.5245000  , 61.1572000 , 62.6831000 , -40.2750000, -10.9500000, 6.4410000  , 0.000000,       0,       0,       0
 5.090, 0.1908000 , 0.3397000  , 9.6911000  , 59.5016000  , 61.0962000 , 62.6678000 , -40.3420000, -10.7160000, 5.9870000  , 0.000000,       0,       0,       0
 5.100, 0.1872000 , 0.3350000  , 9.7091000  , 59.5093000  , 60.9741000 , 62.7441000 , -40.3200000, -10.8800000, 6.1850000  , 0.000000,       0,       0,       0
 5.110, 0.1812000 , 0.3254000  , 9.7198000  , 59.5093000  , 60.8139000 , 62.7823000 , -39.7570000, -10.8470000, 5.9310000  , 0.000000,       0,       0,       0
 5.120, 0.1669000 , 0.3158000  , 9.7222000  , 59.4711000  , 60.6766000 , 62.6907000 , -39.9710000, -10.8970000, 6.1790000  , 0.000000,       0,       0,       0
 5.130, 0.1465000 , 0.3110000  , 9.7234000  , 59.4406000  , 60.5621000 , 62.5305000 , -39.7960000, -10.9500000, 5.7520000  , 0.000000,       0,       0,       0
 5.140, 0.1262000 , 0.3146000  , 9.7234000  , 59.5093000  , 60.3714000 , 62.3779000 , -39.7000000, -10.6810000, 6.1330000  , 0.000000,       0,       0,       0
 5.150, 0.1130000 , 0.3302000  , 9.7175000  , 59.7153000  , 60.0357000 , 62.3016000 , -39.9010000, -10.9630000, 6.7050000  , 0.000000,       0,       0,       0
 5.160, 0.1130000 , 0.3505000  , 9.6947000  , 59.9899000  , 59.6085000 , 62.2940000 , -40.4250000, -10.6550000, 6.7540000  , 0.000000,       0,       0,       0
 5.170, 0.1250000 , 0.3720000  , 9.6588000  , 60.2341000  , 59.2194000 , 62.2940000 , -40.3290000, -10.7530000, 6.0150000  , 0.000000,       0,       0,       0
 5.180, 0.1585000 , 0.3840000  , 9.6038000  , 60.3714000  , 59.0515000 , 62.2101000 , -40.3490000, -10.6870000, 6.1560000  , 0.000000,       0,       0,       0
 5.190, 0.1800000 , 0.3780000  , 9.5775000  , 60.2417000  , 59.2194000 , 62.0651000 , -40.5800000, -10.6310000, 6.3640000  , 0.000000,       0,       0,       0
 5.200, 0.1956000 , 0.3625000  , 9.5607000  , 59.9213000  , 59.5779000 , 61.8515000 , -39.9750000, -10.9140000, 6.3580000  , 0.000000,       0,       0,       0
 5.210, 0.2004000 , 0.3409000  , 9.5536000  , 59.5093000  , 60.0433000 , 61.5387000 , -40.3910000, -10.9590000, 6.3460000  , 0.000000,       0,       0,       0
 5.220, 0.2016000 , 0.3146000  , 9.5595000  , 59.2270000  , 60.4630000 , 61.1649000 , -40.0330000, -11.1820000, 5.8980000  , 0.000000,       0,       0,       0
 5.230, 0.2004000 , 0.2895000  , 9.5703000  , 59.2728000  , 60.7224000 , 60.8139000 , -40.1590000, -11.1570000, 5.8230000  , 0.000000,       0,       0,       0
 5.240, 0.1968000 , 0.2716000  , 9.5835000  , 59.6619000  , 60.7910000 , 60.6003000 , -40.1130000, -11.0030000, 5.9520000  , 0.000000,       0,       0,       0
 5.250, 0.1896000 , 0.2656000  , 9.5978000  , 60.1807000  , 60.7376000 , 60.6155000 , -39.9940000, -10.7120000, 6.1890000  , 0.000000,       0,       0,       0
 5.260, 0.1824000 , 0.2680000  , 9.6122000  , 60.5469000  , 60.7376000 , 60.8139000 , -40.0450000, -10.8910000, 5.6520000  , 0.000000,       0,       0,       0
 5.270, 0.1753000 , 0.2668000  , 9.6277000  , 60.6613000  , 60.8902000 , 61.0809000 , -40.1790000, -10.7090000, 6.4340000  , 0.000000,       0,       0,       0
 5.280, 0.1753000 , 0.2572000  , 9.6433000  , 60.6003000  , 61.0962000 , 61.2488000 , -40.3260000, -10.6420000, 6.4610000  , 0.000000,       0,       0,       0
 5.290, 0.1788000 , 0.2560000  , 9.6469000  , 60.4324000  , 61.2640000 , 61.2259000 , -40.3890000, -10.6260000, 6.1080000  , 0.000000,       0,       0,       0
 5.300, 0.1800000 , 0.2692000  , 9.6373000  , 60.1730000  , 61.4777000 , 61.0199000 , -40.3050000, -10.6710000, 6.3210000  , 0.000000,       0,       0,       0
 5.310, 0.1741000 , 0.2859000  , 9.6313000  , 59.8755000  , 61.7371000 , 60.8292000 , -40.1800000, -10.7750000, 6.3090000  , 0.000000,       0,       0,       0
 5.320, 0.1621000 , 0.2919000  , 9.6373000  , 59.6542000  , 61.9736000 , 60.8673000 , -40.0730000, -10.9910000, 6.7220000  , 0.000000,       0,       0,       0
 5.330, 0.1525000 , 0.2943000  , 9.6541000  , 59.5551000  , 62.1490000 , 61.1038000 , -40.0730000, -10.8550000, 6.3580000  , 0.000000,       0,       0,       0
 5.340, 0.1489000 , 0.2907000  , 9.6756000  , 59.5551000  , 62.3093000 , 61.3708000 , -40.0640000, -10.9100000, 5.8950000  , 0.000000,       0,       0,       0
 5.350, 0.1513000 , 0.2811000  , 9.7019000  , 59.6085000  , 62.4313000 , 61.5082000 , -40.3600000, -10.8560000, 6.1800000  , 0.000000,       0,       0,       0
 5.360, 0.1549000 , 0.2692000  , 9.7306000  , 59.7229000  , 62.4695000 , 61.4624000 , -40.4260000, -10.9070000, 6.6010000  , 0.000000,       0,       0,       0
 5.370, 0.1561000 , 0.2632000  , 9.7581000  , 59.9365000  , 62.3245000 , 61.3251000 , -40.2040000, -10.8000000, 5.9740000  , 0.000000,       0,       0,       0
 5.380, 0.1585000 , 0.2716000  , 9.7797000  , 60.2570000  , 61.9736000 , 61.1572000 , -40.4600000, -10.8490000, 6.4540000  , 0.000000,       0,       0,       0
 5.390, 0.1693000 , 0.2979000  , 9.7868000  , 60.6003000  , 61.4853000 , 60.9894000 , -39.9720000, -10.7240000, 6.6790000  , 0.000000,       0,       0,       0
 5.400, 0.1872000 , 0.3338000  , 9.7785000  , 60.8444000  , 60.9589000 , 60.7910000 , -40.0780000, -10.5660000, 6.3760000  , 0.000000,       0,       0,       0
 5.410, 0.2123000 , 0.3673000  , 9.7545000  , 60.9436000  , 60.5392000 , 60.5469000 , -40.4510000, -10.8750000, 6.3050000  , 0.000000,       0,       0,       0
 5.420, 0.2351000 , 0.3840000  , 9.7198000  , 60.8826000  , 60.2570000 , 60.2646000 , -40.4280000, -10.7090000, 6.8320000  , 0.000000,       0,       0,       0
 5.430, 0.2458000 , 0.3780000  , 9.6852000  , 60.6537000  , 60.1349000 , 59.9899000 , -40.0650000, -10.6370000, 6.2080000  , 0.000000,       0,       0,       0
 5.440, 0.2434000 , 0.3565000  , 9.6576000  , 60.3027000  , 60.1501000 , 59.7763000 , -40.3170000, -10.7690000, 6.0410000  , 0.000000,       0,       0,       0
 5.450, 0.2267000 , 0.3158000  , 9.6457000  , 60.0052000  , 60.2417000 , 59.6619000 , -39.9570000, -10.6090000, 6.2860000  , 0.000000,       0,       0,       0
 5.460, 0.2028000 , 0.2692000  , 9.6397000  , 59.9670000  , 60.3180000 , 59.6008000 , -40.0520000, -10.6680000, 6.5020000  , 0.000000,       0,       0,       0
 5.470, 0.1788000 , 0.2333000  , 9.6337000  , 60.2570000  , 60.3714000 , 59.6161000 , -40.3760000, -10.4250000, 6.0710000  , 0.000000,       0,       0,       0
 5.480, 0.1585000 , 0.2225000  , 9.6229000  , 60.7834000  , 60.4172000 , 59.6695000 , -39.9880000, -10.5040000, 6.3140000  , 0.000000,       0,       0,       0
 5.490, 0.1442000 , 0.2381000  , 9.6110000  , 61.2793000  , 60.4935000 , 59.7610000 , -40.2530000, -10.3820000, 6.7130000  , 0.000000,       0,       0,       0
 5.500, 0.1346000 , 0.2620000  , 9.6014000  , 61.5311000  , 60.6537000 , 59.9060000 , -40.2040000, -10.4330000, 6.3670000  , 0.000000,       0,       0,       0
 5.510, 0.1322000 , 0.2859000  , 9.5942000  , 61.4471000  , 60.8902000 , 60.0128000 , -40.0990000, -10.3280000, 6.4920000  , 0.000000,       0,       0,       0
 5.520, 0.1298000 , 0.3051000  , 9.5930000  , 61.0428000  , 61.2640000 , 60.0052000 , -40.0830000, -10.5700000, 5.9780000  , 0.000000,       0,       0,       0
 5.530, 0.1298000 , 0.3158000  , 9.6038000  , 60.3790000  , 61.7676000 , 59.8907000 , -40.0510000, -10.5240000, 6.2800000  , 0.000000,       0,       0,       0
 5.540, 0.1298000 , 0.3230000  , 9.6265000  , 59.5779000  , 62.2787000 , 59.7000000 , -40.1960000, -10.6900000, 5.9190000  , 0.000000,       0,       0,       0
 5.550, 0.1274000 , 0.3302000  , 9.6576000  , 58.9294000  , 62.6526000 , 59.4482000 , -40.0360000, -10.3720000, 6.4600000  , 0.000000,       0,       0,       0
 5.560, 0.1226000 , 0.3421000  , 9.6911000  , 58.6777000  , 62.7441000 , 59.2346000 , -40.1970000, -10.7280000, 6.3110000  , 0.000000,       0,       0,       0
 5.570, 0.1190000 , 0.3613000  , 9.7151000  , 58.8837000  , 62.4695000 , 59.1660000 , -40.2820000, -10.4310000, 6.1290000  , 0.000000,       0,       0,       0
 5.580, 0.1262000 , 0.3804000  , 9.7198000  , 59.4025000  , 61.9125000 , 59.3262000 , -40.1360000, -10.8610000, 6.5570000  , 0.000000,       0,       0,       0
 5.590, 0.1418000 , 0.3864000  , 9.7031000  , 60.0052000  , 61.2869000 , 59.7000000 , -40.1680000, -10.5110000, 6.3820000  , 0.000000,       0,       0,       0
 5.600, 0.1633000 , 0.3768000  , 9.6732000  , 60.4858000  , 60.7986000 , 60.1425000 , -40.4960000, -10.7490000, 6.2340000  , 0.000000,       0,       0,       0
 5.610, 0.1860000 , 0.3589000  , 9.6409000  , 60.7605000  , 60.5927000 , 60.5011000 , -40.1530000, -10.4680000, 6.2330000  , 0.000000,       0,       0,       0
 5.620, 0.2016000 , 0.3350000  , 9.6122000  , 60.8139000  , 60.6842000 , 60.6613000 , -40.0350000, -10.5230000, 6.1900000  , 0.000000,       0,       0,       0
 5.630, 0.2052000 , 0.3146000  , 9.5966000  , 60.6918000  , 60.9283000 , 60.5927000 , -40.1110000, -10.7280000, 6.0470000  , 0.000000,       0,       0,       0
 5.640, 0.2004000 , 0.3086000  , 9.5918000  , 60.4401000  , 61.2411000 , 60.3409000 , -40.2020000, -10.3230000, 5.8830000  , 0.000000,       0,       0,       0
 5.650, 0.1884000 , 0.3170000  , 9.5990000  , 60.0662000  , 61.5082000 , 59.9976000 , -40.2230000, -10.5740000, 6.4260000  , 0.000000,       0,       0,       0
 5.660, 0.1776000 , 0.3385000  , 9.6098000  , 59.5932000  , 61.6989000 , 59.6848000 , -40.5770000, -10.5070000, 6.4990000  , 0.000000,       0,       0,       0
 5.670, 0.1669000 , 0.3649000  , 9.6265000  , 59.1431000  , 61.8362000 , 59.4406000 , -40.3160000, -10.5740000, 6.7060000  , 0.000000,       0,       0,       0
 5.680, 0.1549000 , 0.3900000  , 9.6469000  , 58.8989000  , 61.8820000 , 59.4254000 , -40.1590000, -10.4590000, 7.2260000  , 0.000000,       0,       0,       0
 5.690, 0.1489000 , 0.4008000  , 9.6720000  , 58.9828000  , 61.8057000 , 59.7534000 , -40.3380000, -10.6470000, 7.0360000  , 0.000000,       0,       0,       0
 5.700, 0.1537000 , 0.3996000  , 9.6911000  , 59.4330000  , 61.5921000 , 60.3485000 , -40.3060000, -10.6290000, 6.4020000  , 0.000000,       0,       0,       0
 5.710, 0.1681000 , 0.3948000  , 9.6947000  , 60.0967000  , 61.3098000 , 60.9512000 , -40.1240000, -10.3450000, 6.6180000  , 0.000000,       0,       0,       0
 5.720, 0.1836000 , 0.3888000  , 9.6840000  , 60.7452000  , 61.0886000 , 61.3937000 , -40.2060000, -10.7810000, 6.6890000  , 0.000000,       0,       0,       0
 5.730, 0.1956000 , 0.3864000  , 9.6636000  , 61.2106000  , 60.9665000 , 61.6226000 , -40.1130000, -10.6150000, 6.6140000  , 0.000000,       0,       0,       0
 5.740, 0.2028000 , 0.3864000  , 9.6421000  , 61.4700000  , 60.9436000 , 61.6837000 , -40.2760000, -10.7700000, 6.4950000  , 0.000000,       0,       0,       0
 5.750, 0.2076000 , 0.3888000  , 9.6229000  , 61.5234000  , 60.9741000 , 61.6455000 , -40.2680000, -11.0140000, 6.0440000  , 0.000000,       0,       0,       0
 5.760, 0.2076000 , 0.3948000  , 9.6086000  , 61.3708000  , 61.0352000 , 61.4853000 , -40.3410000, -10.5060000, 6.1650000  , 0.000000,       0,       0,       0
 5.770, 0.1992000 , 0.4008000  , 9.6026000  , 61.0428000  , 61.1420000 , 61.2488000 , -40.2680000, -10.4680000, 6.0640000  , 0.000000,       0,       0,       0
 5.780, 0.1800000 , 0.4055000  , 9.6086000  , 60.4630000  , 61.3937000 , 61.0046000 , -40.1950000, -10.6030000, 6.6490000  , 0.000000,       0,       0,       0
 5.790, 0.1669000 , 0.4079000  , 9.6218000  , 60.0891000  , 61.5921000 , 61.0352000 , -40.2330000, -10.3180000, 6.5940000  , 0.000000,       0,       0,       0
 5.800, 0.1573000 , 0.4020000  , 9.6397000  , 59.7992000  , 61.7828000 , 61.1877000 , -40.4140000, -10.6510000, 6.3300000  , 0.000000,       0,       0,       0
 5.810, 0.1561000 , 0.3864000  , 9.6588000  , 59.7534000  , 61.8973000 , 61.3937000 , -40.2010000, -10.7460000, 6.8380000  , 0.000000,       0,       0,       0
 5.820, 0.1657000 , 0.3685000  , 9.6744000  , 60.0433000  , 61.8591000 , 61.5540000 , -40.1220000, -10.4360000, 6.9080000  , 0.000000,       0,       0,       0
 5.830, 0.1824000 , 0.3625000  , 9.6828000  , 60.5698000  , 61.6455000 , 61.6150000 , -40.1730000, -10.4100000, 6.9080000  , 0.000000,       0,       0,       0
 5.840, 0.1968000 , 0.3744000  , 9.6935000  , 61.1877000  , 61.3861000 , 61.5158000 , -40.2790000, -10.3630000, 7.2310000  , 0.000000,       0,       0,       0
 5.850, 0.1992000 , 0.3864000  , 9.7019000  , 61.8134000  , 61.1343000 , 61.2259000 , -40.0600000, -10.4110000, 7.4330000  , 0.000000,       0,       0,       0
 5.860, 0.2028000 , 0.4008000  , 9.7043000  , 62.3016000  , 61.0962000 , 60.6613000 , -40.2680000, -10.6840000, 7.1430000  , 0.000000,       0,       0,       0
 5.870, 0.2040000 , 0.4187000  , 9.6983000  , 62.4619000  , 61.1954000 , 59.7687000 , -40.4480000, -10.3910000, 7.2940000  , 0.000000,       0,       0,       0
 5.880, 0.1872000 , 0.4402000  , 9.6840000  , 62.1872000  , 61.4777000 , 58.7540000 , -40.2380000, -10.2950000, 7.1070000  , 0.000000,       0,       0,       0
 5.890, 0.1549000 , 0.4606000  , 9.6768000  , 61.6074000  , 61.8973000 , 57.9300000 , -39.8820000, -10.4960000, 6.6420000  , 0.000000,       0,       0,       0
 5.900, 0.1238000 , 0.4689000  , 9.6840000  , 60.9894000  , 62.2482000 , 57.5256000 , -40.4740000, -10.5820000, 6.3310000  , 0.000000,       0,       0,       0
 5.910, 0.0927000 , 0.4654000  , 9.7067000  , 60.6461000  , 62.3856000 , 57.4722000 , -40.1780000, -10.2540000, 6.7540000  , 0.000000,       0,       0,       0
 5.920, 0.0784000 , 0.4618000  , 9.7306000  , 60.7147000  , 62.2864000 , 57.5333000 , -40.3580000, -10.5880000, 7.0050000  , 0.000000,       0,       0,       0
 5.930, 0.0784000 , 0.4474000  , 9.7426000  , 61.2106000  , 62.0346000 , 57.5409000 , -40.2820000, -10.4110000, 6.4790000  , 0.000000,       0,       0,       0
 5.940, 0.0831000 , 0.4199000  , 9.7498000  , 62.1033000  , 61.6379000 , 57.5562000 , -40.4660000, -10.2730000, 6.4340000  , 0.000000,       0,       0,       0
 5.950, 0.0999000 , 0.4008000  , 9.7557000  , 63.2477000  , 61.2488000 , 57.5562000 , -40.4050000, -10.3270000, 6.6640000  , 0.000000,       0,       0,       0
 5.960, 0.1202000 , 0.4031000  , 9.7569000  , 64.4836000  , 61.0123000 , 57.2891000 , -40.6790000, -10.3560000, 6.6190000  , 0.000000,       0,       0,       0
 5.970, 0.1370000 , 0.4235000  , 9.7521000  , 65.5670000  , 60.8673000 , 56.6788000 , -40.4400000, -10.3690000, 6.3650000  , 0.000000,       0,       0,       0
 5.980, 0.1489000 , 0.4462000  , 9.7318000  , 66.3223000  , 60.7605000 , 55.8777000 , -40.2570000, -9.7600000 , 6.4280000  , 0.000000,       0,       0,       0
 5.990, 0.1513000 , 0.4630000  , 9.6959000  , 66.7038000  , 60.6918000 , 55.0766000 , -40.5140000, -9.8170000 , 6.7060000  , 0.000000,       0,       0,       0
 6.000, 0.1549000 , 0.4749000  , 9.6576000  , 66.7877000  , 60.7681000 , 54.3594000 , -40.6100000, -9.9430000 , 6.6740000  , 0.000000,       0,       0,       0
 6.010, 0.1513000 , 0.4773000  , 9.6241000  , 66.7725000  , 61.0733000 , 53.6118000 , -40.5630000, -9.6070000 , 6.9460000  , 0.000000,       0,       0,       0
 6.020, 0.1513000 , 0.4666000  , 9.5966000  , 66.9327000  , 61.5921000 , 52.7344000 , -40.3200000, -9.4770000 , 6.6600000  , 0.000000,       0,       0,       0
 6.030, 0.1477000 , 0.4522000  , 9.5703000  , 67.3218000  , 62.2330000 , 51.8036000 , -40.3900000, -9.6420000 , 6.5640000  , 0.000000,       0,       0,       0
 6.040, 0.1465000 , 0.4486000  , 9.5404000  , 67.6498000  , 62.8891000 , 51.0101000 , -40.5170000, -9.8070000 , 6.5310000  , 0.000000,       0,       0,       0
 6.050, 0.1453000 , 0.4606000  , 9.5117000  , 67.5964000  , 63.4384000 , 50.6134000 , -40.4910000, -9.5210000 , 6.7920000  , 0.000000,       0,       0,       0
 6.060, 0.1370000 , 0.4797000  , 9.4949000  , 67.1310000  , 63.8199000 , 50.7431000 , -40.5230000, -9.3230000 , 6.7910000  , 0.000000,       0,       0,       0
 6.070, 0.1274000 , 0.5012000  , 9.5093000  , 66.5359000  , 64.0945000 , 51.3077000 , -40.5130000, -9.3480000 , 6.6770000  , 0.000000,       0,       0,       0
 6.080, 0.1226000 , 0.5288000  , 9.5595000  , 66.1316000  , 64.3539000 , 51.9943000 , -40.6490000, -9.3990000 , 7.1770000  , 0.000000,       0,       0,       0
 6.090, 0.1178000 , 0.5563000  , 9.6469000  , 66.3071000  , 64.5676000 , 52.4597000 , -40.7050000, -9.3540000 , 6.5790000  , 0.000000,       0,       0,       0
 6.100, 0.0963000 , 0.5718000  , 9.7593000  , 67.4667000  , 64.4608000 , 52.5742000 , -40.4480000, -9.1680000 , 7.3690000  , 0.000000,       0,       0,       0
 6.110, 0.0604000 , 0.5850000  , 9.8586000  , 69.6564000  , 63.7512000 , 52.5208000 , -40.4740000, -9.1290000 , 6.6820000  , 0.000000,       0,       0,       0
 6.120, 0.0209000 , 0.6209000  , 9.9101000  , 72.2656000  , 62.5305000 , 52.4445000 , -40.7660000, -9.1360000 , 7.2500000  , 0.000000,       0,       0,       0
 6.130, 0.0221000 , 0.6962000  , 9.8981000  , 74.2874000  , 61.3556000 , 52.3300000 , -40.6630000, -8.8820000 , 7.1190000  , 0.000000,       0,       0,       0
 6.140, 0.0724000 , 0.7596000  , 9.8479000  , 75.0885000  , 60.8292000 , 52.1774000 , -40.5730000, -8.9840000 , 7.4340000  , 0.000000,       0,       0,       0
 6.150, 0.1154000 , 0.7812000  , 9.7892000  , 74.9283000  , 60.6995000 , 51.9943000 , -40.6800000, -8.5240000 , 7.1300000  , 0.000000,       0,       0,       0
 6.160, 0.1513000 , 0.7740000  , 9.7402000  , 74.3103000  , 60.7452000 , 51.8188000 , -40.8730000, -8.9340000 , 7.2820000  , 0.000000,       0,       0,       0
 6.170, 0.1800000 , 0.7776000  , 9.7019000  , 73.5397000  , 60.9894000 , 51.5900000 , -40.8440000, -8.7840000 , 7.9680000  , 0.000000,       0,       0,       0
 6.180, 0.2004000 , 0.7919000  , 9.6852000  , 72.8912000  , 61.3556000 , 51.3687000 , -40.9000000, -8.5670000 , 7.7420000  , 0.000000,       0,       0,       0
 6.190, 0.1956000 , 0.8159000  , 9.6887000  , 72.5632000  , 61.5921000 , 51.3535000 , -40.8940000, -8.0780000 , 8.3320000  , 0.000000,       0,       0,       0
 6.200, 0.1741000 , 0.8494000  , 9.7007000  , 72.5327000  , 61.5768000 , 51.7960000 , -40.6790000, -8.2500000 , 8.2770000  , 0.000000,       0,       0,       0
 6.210, 0.1513000 , 0.8805000  , 9.7067000  , 72.5403000  , 61.3708000 , 52.7878000 , -40.8130000, -8.4720000 , 8.3650000  , 0.000000,       0,       0,       0
 6.220, 0.1334000 , 0.8996000  , 9.7055000  , 72.3801000  , 60.9741000 , 54.1840000 , -40.5840000, -8.4420000 , 8.1540000  , 0.000000,       0,       0,       0
 6.230, 0.1274000 , 0.9104000  , 9.6995000  , 72.1054000  , 60.3638000 , 55.7480000 , -40.7080000, -8.3940000 , 7.5530000  , 0.000000,       0,       0,       0
 6.240, 0.1214000 , 0.9104000  , 9.6935000  , 71.8765000  , 59.4406000 , 57.3425000 , -40.7560000, -8.1630000 , 7.1190000  , 0.000000,       0,       0,       0
 6.250, 0.1154000 , 0.9020000  , 9.6744000  , 71.8307000  , 58.3344000 , 58.7692000 , -40.6430000, -8.0630000 , 6.9880000  , 0.000000,       0,       0,       0
 6.260, 0.1190000 , 0.8984000  , 9.6421000  , 71.9299000  , 57.3807000 , 59.7305000 , -40.8910000, -7.9680000 , 7.4190000  , 0.000000,       0,       0,       0
 6.270, 0.1238000 , 0.9116000  , 9.5966000  , 71.8994000  , 56.7169000 , 60.2112000 , -40.8670000, -8.1590000 , 7.9040000  , 0.000000,       0,       0,       0
 6.280, 0.1370000 , 0.9403000  , 9.5428000  , 71.4188000  , 56.4804000 , 60.4630000 , -40.6390000, -8.0890000 , 7.8120000  , 0.000000,       0,       0,       0
 6.290, 0.1537000 , 0.9762000  , 9.4949000  , 70.3354000  , 56.7017000 , 60.6384000 , -40.8950000, -8.1150000 , 7.4720000  , 0.000000,       0,       0,       0
 6.300, 0.1693000 , 1.0037000  , 9.4698000  , 68.8629000  , 57.2586000 , 60.7452000 , -40.8230000, -7.7920000 , 7.7470000  , 0.000000,       0,       0,       0
 6.310, 0.1765000 , 1.0192000  , 9.4782000  , 67.4896000  , 58.0292000 , 60.8139000 , -40.5880000, -7.9570000 , 6.3660000  , 0.000000,       0,       0,       0
 6.320, 0.1729000 , 1.0264000  , 9.5093000  , 66.6351000  , 58.7158000 , 60.9360000 , -40.7340000, -8.0180000 , 6.9930000  , 0.000000,       0,       0,       0
 6.330, 0.1693000 , 1.0336000  , 9.5488000  , 66.5817000  , 59.1125000 , 61.0886000 , -40.6670000, -7.7350000 , 7.2690000  , 0.000000,       0,       0,       0
 6.340, 0.1753000 , 1.0491000  , 9.5835000  , 67.2836000  , 59.2346000 , 61.2564000 , -40.7350000, -7.8540000 , 6.8900000  , 0.000000,       0,       0,       0
 6.350, 0.1776000 , 1.0743000  , 9.6002000  , 68.3975000  , 59.0668000 , 61.4700000 , -40.7820000, -7.8790000 , 7.0630000  , 0.000000,       0,       0,       0
 6.360, 0.1908000 , 1.1018000  , 9.5906000  , 69.4275000  , 58.7616000 , 61.7294000 , -40.8010000, -7.9780000 , 7.1390000  , 0.000000,       0,       0,       0
 6.370, 0.2195000 , 1.1281000  , 9.5607000  , 69.9310000  , 58.6166000 , 61.9354000 , -40.7090000, -7.5540000 , 6.8910000  , 0.000000,       0,       0,       0
 6.380, 0.2650000 , 1.1460000  , 9.5153000  , 69.4046000  , 58.9523000 , 61.8515000 , -40.8020000, -7.7060000 , 7.1120000  , 0.000000,       0,       0,       0
 6.390, 0.2853000 , 1.1389000  , 9.5093000  , 68.5577000  , 59.4940000 , 61.5768000 , -40.8390000, -7.6560000 , 6.6610000  , 0.000000,       0,       0,       0
 6.400, 0.2817000 , 1.1185000  , 9.5344000  , 67.8177000  , 60.1196000 , 61.1496000 , -40.7180000, -7.4560000 , 7.0890000  , 0.000000,       0,       0,       0
 6.410, 0.2542000 , 1.1042000  , 9.5727000  , 67.5507000  , 60.6232000 , 60.6232000 , -40.8240000, -7.5620000 , 6.5360000  , 0.000000,       0,       0,       0
 6.420, 0.2171000 , 1.1030000  , 9.6074000  , 67.8864000  , 60.7910000 , 60.1959000 , -40.7510000, -7.5470000 , 6.5280000  , 0.000000,       0,       0,       0
 6.430, 0.1848000 , 1.1161000  , 9.6289000  , 68.7485000  , 60.6918000 , 60.0204000 , -40.5520000, -7.6630000 , 7.3940000  , 0.000000,       0,       0,       0
 6.440, 0.1657000 , 1.1437000  , 9.6313000  , 69.9387000  , 60.5316000 , 59.9899000 , -40.8010000, -7.4890000 , 7.3080000  , 0.000000,       0,       0,       0
 6.450, 0.1561000 , 1.1819000  , 9.6265000  , 71.1746000  , 60.6003000 , 59.9289000 , -40.7880000, -7.3390000 , 7.6660000  , 0.000000,       0,       0,       0
 6.460, 0.1549000 , 1.2226000  , 9.6218000  , 72.2427000  , 60.9665000 , 59.8068000 , -41.0420000, -7.2420000 , 7.5980000  , 0.000000,       0,       0,       0
 6.470, 0.1370000 , 1.2621000  , 9.6229000  , 73.0667000  , 61.3861000 , 59.7916000 , -41.0670000, -7.3250000 , 8.0880000  , 0.000000,       0,       0,       0
 6.480, 0.1154000 , 1.3040000  , 9.6218000  , 73.6771000  , 61.6226000 , 60.0357000 , -40.8070000, -6.8910000 , 7.6740000  , 0.000000,       0,       0,       0
 6.490, 0.0999000 , 1.3422000  , 9.6182000  , 74.1577000  , 61.6302000 , 60.3638000 , -40.8050000, -7.1390000 , 7.8060000  , 0.000000,       0,       0,       0
 6.500, 0.0915000 , 1.3733000  , 9.6170000  , 74.7375000  , 61.4700000 , 60.5469000 , -40.9600000, -7.0810000 , 7.8490000  , 0.000000,       0,       0,       0
 6.510, 0.0903000 , 1.4056000  , 9.6206000  , 75.5386000  , 61.3556000 , 60.3867000 , -40.9560000, -7.3510000 , 7.6740000  , 0.000000,       0,       0,       0
 6.520, 0.1011000 , 1.4475000  , 9.6313000  , 76.5152000  , 61.2869000 , 59.8679000 , -40.5040000, -7.0680000 , 7.8560000  , 0.000000,       0,       0,       0
 6.530, 0.1119000 , 1.4870000  , 9.6481000  , 77.5833000  , 61.1496000 , 59.1354000 , -40.9650000, -6.8560000 , 7.2030000  , 0.000000,       0,       0,       0
 6.540, 0.1202000 , 1.5241000  , 9.6576000  , 78.6285000  , 60.9283000 , 58.2886000 , -40.9120000, -6.8450000 , 7.6300000  , 0.000000,       0,       0,       0
 6.550, 0.1262000 , 1.5767000  , 9.6576000  , 79.5059000  , 60.7376000 , 57.4036000 , -40.9500000, -6.7320000 , 7.4560000  , 0.000000,       0,       0,       0
 6.560, 0.1346000 , 1.6509000  , 9.6517000  , 79.9942000  , 60.6918000 , 56.5491000 , -40.5930000, -6.7760000 , 7.2190000  , 0.000000,       0,       0,       0
 6.570, 0.1597000 , 1.7334000  , 9.6397000  , 79.9026000  , 60.8673000 , 55.8014000 , -40.9170000, -6.5210000 , 7.1280000  , 0.000000,       0,       0,       0
 6.580, 0.1956000 , 1.8064000  , 9.6229000  , 79.2999000  , 61.2335000 , 55.1453000 , -40.8290000, -6.6260000 , 6.8010000  , 0.000000,       0,       0,       0
 6.590, 0.2303000 , 1.8495000  , 9.6026000  , 78.3997000  , 61.6074000 , 54.7791000 , -41.0930000, -6.2300000 , 7.2050000  , 0.000000,       0,       0,       0
 6.600, 0.2566000 , 1.8554000  , 9.5739000  , 77.4460000  , 61.7447000 , 54.9011000 , -40.8930000, -6.8050000 , 6.8050000  , 0.000000,       0,       0,       0
 6.610, 0.2781000 , 1.8423000  , 9.5380000  , 76.7059000  , 61.5768000 , 55.4199000 , -40.7450000, -6.4190000 , 7.2910000  , 0.000000,       0,       0,       0
 6.620, 0.2841000 , 1.8231000  , 9.5033000  , 76.3245000  , 61.1801000 , 56.1066000 , -40.8070000, -6.2790000 , 7.5500000  , 0.000000,       0,       0,       0
 6.630, 0.2829000 , 1.8136000  , 9.4770000  , 76.2863000  , 60.7452000 , 56.8237000 , -40.7870000, -6.1870000 , 7.4560000  , 0.000000,       0,       0,       0
 6.640, 0.2769000 , 1.8172000  , 9.4638000  , 76.4999000  , 60.3027000 , 57.3883000 , -40.8580000, -5.8850000 , 7.2650000  , 0.000000,       0,       0,       0
 6.650, 0.2566000 , 1.8327000  , 9.4734000  , 76.8967000  , 59.8907000 , 57.7469000 , -40.8020000, -5.7850000 , 7.2130000  , 0.000000,       0,       0,       0
 6.660, 0.2315000 , 1.8566000  , 9.4902000  , 77.5299000  , 59.4177000 , 57.9529000 , -41.0380000, -5.8070000 , 7.3310000  , 0.000000,       0,       0,       0
 6.670, 0.2004000 , 1.8782000  , 9.5057000  , 78.3005000  , 58.9371000 , 58.1284000 , -40.7420000, -5.7830000 , 7.8450000  , 0.000000,       0,       0,       0
 6.680, 0.1776000 , 1.9069000  , 9.5129000  , 79.0863000  , 58.3954000 , 58.3801000 , -41.0580000, -5.6760000 , 8.1630000  , 0.000000,       0,       0,       0
 6.690, 0.1705000 , 1.9440000  , 9.5105000  , 79.7577000  , 57.7469000 , 58.7769000 , -40.9080000, -5.6120000 , 7.7090000  , 0.000000,       0,       0,       0
 6.700, 0.1848000 , 1.9823000  , 9.5009000  , 80.2002000  , 57.0526000 , 59.3185000 , -40.7550000, -5.9840000 , 8.3670000  , 0.000000,       0,       0,       0
 6.710, 0.2016000 , 2.0241000  , 9.4914000  , 80.4138000  , 56.3431000 , 59.9213000 , -40.6780000, -5.4230000 , 7.8800000  , 0.000000,       0,       0,       0
 6.720, 0.2123000 , 2.0684000  , 9.4902000  , 80.4367000  , 55.6870000 , 60.5392000 , -40.8760000, -5.4570000 , 7.8590000  , 0.000000,       0,       0,       0
 6.730, 0.2219000 , 2.1103000  , 9.4794000  , 80.2612000  , 55.2368000 , 61.0733000 , -40.8310000, -5.5990000 , 7.9010000  , 0.000000,       0,       0,       0
 6.740, 0.2231000 , 2.1461000  , 9.4567000  , 79.8492000  , 55.1529000 , 61.3403000 , -40.9740000, -5.3550000 , 8.5390000  , 0.000000,       0,       0,       0
 6.750, 0.2315000 , 2.1808000  , 9.4327000  , 79.2084000  , 55.5038000 , 61.3098000 , -40.7660000, -5.3760000 , 8.1710000  , 0.000000,       0,       0,       0
 6.760, 0.2422000 , 2.2095000  , 9.4088000  , 78.3691000  , 56.0837000 , 61.0809000 , -41.2160000, -5.3750000 , 8.3210000  , 0.000000,       0,       0,       0
 6.770, 0.2530000 , 2.2287000  , 9.3873000  , 77.4689000  , 56.6254000 , 60.7910000 , -40.9500000, -5.2290000 , 8.5890000  , 0.000000,       0,       0,       0
 6.780, 0.2710000 , 2.2454000  , 9.3634000  , 76.6449000  , 57.0984000 , 60.4477000 , -40.6080000, -5.2380000 , 7.4640000  , 0.000000,       0,       0,       0
 6.790, 0.2829000 , 2.2741000  , 9.3442000  , 76.0040000  , 57.5790000 , 59.9594000 , -40.6200000, -5.0500000 , 6.9850000  , 0.000000,       0,       0,       0
 6.800, 0.2901000 , 2.3148000  , 9.3311000  , 75.5081000  , 58.0750000 , 59.3719000 , -40.9250000, -4.9600000 , 7.0620000  , 0.000000,       0,       0,       0
 6.810, 0.2925000 , 2.3507000  , 9.3299000  , 75.0198000  , 58.6319000 , 58.8074000 , -41.0030000, -5.1320000 , 7.9800000  , 0.000000,       0,       0,       0
 6.820, 0.2961000 , 2.3734000  , 9.3251000  , 74.2874000  , 59.0515000 , 58.4564000 , -41.1120000, -4.7380000 , 7.5560000  , 0.000000,       0,       0,       0
 6.830, 0.3045000 , 2.3866000  , 9.3071000  , 72.8989000  , 59.4025000 , 58.3649000 , -41.1660000, -4.9170000 , 7.4400000  , 0.000000,       0,       0,       0
 6.840, 0.3248000 , 2.3902000  , 9.2736000  , 70.5872000  , 59.9365000 , 58.3038000 , -41.1100000, -4.9680000 , 7.5060000  , 0.000000,       0,       0,       0
 6.850, 0.3487000 , 2.3734000  , 9.2533000  , 67.5354000  , 61.0580000 , 57.8461000 , -41.4190000, -4.9180000 , 6.9230000  , 0.000000,       0,       0,       0
 6.860, 0.3499000 , 2.3292000  , 9.2772000  , 64.5828000  , 62.8204000 , 56.7245000 , -41.0470000, -4.8030000 , 7.0700000  , 0.000000,       0,       0,       0
 6.870, 0.3200000 , 2.2634000  , 9.3478000  , 62.6526000  , 64.6667000 , 55.2139000 , -41.2760000, -4.4360000 , 7.9280000  , 0.000000,       0,       0,       0
 6.880, 0.2650000 , 2.2167000  , 9.4292000  , 62.1567000  , 65.8722000 , 54.0009000 , -40.9740000, -4.7870000 , 8.0110000  , 0.000000,       0,       0,       0
 6.890, 0.2064000 , 2.2239000  , 9.4914000  , 62.7594000  , 66.1240000 , 53.6423000 , -40.9140000, -4.5040000 , 7.9790000  , 0.000000,       0,       0,       0
 6.900, 0.1729000 , 2.2861000  , 9.5165000  , 63.7054000  , 65.5594000 , 54.1458000 , -41.1860000, -4.8570000 , 7.6470000  , 0.000000,       0,       0,       0
 6.910, 0.1609000 , 2.3639000  , 9.5260000  , 64.4379000  , 64.7659000 , 55.1376000 , -40.9780000, -4.7260000 , 8.1190000  , 0.000000,       0,       0,       0
 6.920, 0.1430000 , 2.4261000  , 9.5380000  , 64.9567000  , 64.0106000 , 56.1676000 , -40.9600000, -4.6790000 , 8.0050000  , 0.000000,       0,       0,       0
 6.930, 0.1190000 , 2.4620000  , 9.5572000  , 65.6586000  , 63.2324000 , 57.1365000 , -40.6830000, -4.4300000 , 7.8710000  , 0.000000,       0,       0,       0
 6.940, 0.0975000 , 2.4859000  , 9.5775000  , 66.8640000  , 62.3703000 , 58.0215000 , -41.1730000, -4.2970000 , 7.0390000  , 0.000000,       0,       0,       0
 6.950, 0.0915000 , 2.5254000  , 9.5883000  , 69.7098000  , 60.9512000 , 58.8989000 , -41.4330000, -4.0840000 , 7.6020000  , 0.000000,       0,       0,       0
 6.960, 0.1047000 , 2.5541000  , 9.5763000  , 72.0215000  , 60.0815000 , 59.0057000 , -41.0680000, -4.2640000 , 7.9510000  , 0.000000,       0,       0,       0
 6.970, 0.1226000 , 2.5936000  , 9.5452000  , 74.2493000  , 59.3643000 , 58.8455000 , -40.9640000, -3.9710000 , 8.2720000  , 0.000000,       0,       0,       0
 6.980, 0.1489000 , 2.6438000  , 9.5021000  , 75.9430000  , 58.8379000 , 58.6853000 , -41.2160000, -4.0730000 , 8.3800000  , 0.000000,       0,       0,       0
 6.990, 0.1776000 , 2.6869000  , 9.4591000  , 76.8280000  , 58.4564000 , 58.7234000 , -40.9190000, -3.7610000 , 8.2230000  , 0.000000,       0,       0,       0
 7.000, 0.1992000 , 2.7000000  , 9.4327000  , 77.0874000  , 58.1589000 , 58.9294000 , -41.2220000, -4.0070000 , 8.3810000  , 0.000000,       0,       0,       0
 7.010, 0.2076000 , 2.6917000  , 9.4220000  , 77.2095000  , 57.9529000 , 59.0973000 , -41.1700000, -3.9560000 , 7.8540000  , 0.000000,       0,       0,       0
 7.020, 0.2076000 , 2.6701000  , 9.4244000  , 77.6672000  , 57.7087000 , 59.1354000 , -41.2440000, -3.8800000 , 7.5820000  , 0.000000,       0,       0,       0
 7.030, 0.2064000 , 2.6558000  , 9.4088000  , 78.7125000  , 57.2510000 , 59.0134000 , -41.0970000, -4.0460000 , 7.9720000  , 0.000000,       0,       0,       0
 7.040, 0.2147000 , 2.6713000  , 9.3765000  , 80.2231000  , 56.6635000 , 58.7234000 , -41.2360000, -3.6550000 , 8.0940000  , 0.000000,       0,       0,       0
 7.050, 0.2303000 , 2.7228000  , 9.3334000  , 81.7413000  , 56.0837000 , 58.3954000 , -41.0170000, -3.4790000 , 7.7430000  , 0.000000,       0,       0,       0
 7.060, 0.2494000 , 2.7838000  , 9.2832000  , 82.8323000  , 55.7098000 , 58.2199000 , -41.3400000, -3.4440000 , 7.4500000  , 0.000000,       0,       0,       0
 7.070, 0.2722000 , 2.8340000  , 9.2377000  , 83.2825000  , 55.6946000 , 58.1512000 , -41.2760000, -3.3440000 , 7.6760000  , 0.000000,       0,       0,       0
 7.080, 0.2961000 , 2.8675000  , 9.2031000  , 83.1833000  , 55.9464000 , 58.0826000 , -41.1540000, -3.2630000 , 7.8700000  , 0.000000,       0,       0,       0
 7.090, 0.3140000 , 2.8902000  , 9.1803000  , 82.8476000  , 56.1981000 , 58.0292000 , -41.6210000, -3.3030000 , 8.3620000  , 0.000000,       0,       0,       0
 7.100, 0.3260000 , 2.9094000  , 9.1552000  , 82.5195000  , 56.3660000 , 57.9834000 , -41.5670000, -3.1040000 , 7.7760000  , 0.000000,       0,       0,       0
 7.110, 0.3415000 , 2.9297000  , 9.1229000  , 82.3364000  , 56.5643000 , 57.7469000 , -41.2740000, -2.8820000 , 7.7930000  , 0.000000,       0,       0,       0
 7.120, 0.3499000 , 2.9429000  , 9.0918000  , 82.3898000  , 56.9000000 , 57.0602000 , -41.4230000, -2.9100000 , 7.5960000  , 0.000000,       0,       0,       0
 7.130, 0.3619000 , 2.9728000  , 9.0535000  , 82.7637000  , 57.3959000 , 55.9082000 , -41.6720000, -2.9530000 , 7.1520000  , 0.000000,       0,       0,       0
 7.140, 0.3619000 , 3.0302000  , 9.0272000  , 83.3435000  , 58.0673000 , 54.4586000 , -41.5330000, -2.7680000 , 8.3610000  , 0.000000,       0,       0,       0
 7.150, 0.3427000 , 3.1127000  , 9.0320000  , 83.9310000  , 58.8608000 , 53.1235000 , -41.7090000, -2.4120000 , 7.6960000  , 0.000000,       0,       0,       0
 7.160, 0.3092000 , 3.1977000  , 9.0571000  , 84.4269000  , 59.6390000 , 52.3605000 , -41.4670000, -2.5730000 , 6.6810000  , 0.000000,       0,       0,       0
 7.170, 0.2698000 , 3.2611000  , 9.1026000  , 84.9304000  , 60.1730000 , 52.3529000 , -41.4820000, -2.3230000 , 7.3610000  , 0.000000,       0,       0,       0
 7.180, 0.2255000 , 3.2934000  , 9.1684000  , 85.6934000  , 60.2646000 , 52.9633000 , -41.4340000, -2.2790000 , 7.5920000  , 0.000000,       0,       0,       0
 7.190, 0.1980000 , 3.3233000  , 9.2246000  , 86.8454000  , 59.8068000 , 53.9246000 , -41.1620000, -2.3590000 , 7.6330000  , 0.000000,       0,       0,       0
 7.200, 0.1896000 , 3.3628000  , 9.2413000  , 88.1805000  , 58.9981000 , 54.9927000 , -41.4030000, -2.1130000 , 8.1670000  , 0.000000,       0,       0,       0
 7.210, 0.1992000 , 3.4154000  , 9.1959000  , 89.1647000  , 58.2504000 , 55.8548000 , -41.7730000, -1.9370000 , 7.7720000  , 0.000000,       0,       0,       0
 7.220, 0.2267000 , 3.4633000  , 9.1050000  , 89.2792000  , 57.9987000 , 56.2668000 , -41.4480000, -1.9200000 , 8.1950000  , 0.000000,       0,       0,       0
 7.230, 0.2626000 , 3.5003000  , 9.0188000  , 88.3713000  , 58.4641000 , 55.9540000 , -41.3990000, -1.8930000 , 8.0280000  , 0.000000,       0,       0,       0
 7.240, 0.2925000 , 3.5446000  , 8.9566000  , 86.7157000  , 59.3262000 , 54.9622000 , -41.5010000, -1.6790000 , 8.0770000  , 0.000000,       0,       0,       0
 7.250, 0.2889000 , 3.5972000  , 8.9195000  , 84.6558000  , 60.1807000 , 53.7109000 , -41.3250000, -1.5310000 , 8.0390000  , 0.000000,       0,       0,       0
 7.260, 0.2710000 , 3.6487000  , 8.9183000  , 82.6111000  , 60.7986000 , 52.7191000 , -41.4900000, -1.7920000 , 7.8470000  , 0.000000,       0,       0,       0
 7.270, 0.2339000 , 3.7061000  , 8.9506000  , 81.0852000  , 61.0962000 , 52.1698000 , -41.5570000, -1.3470000 , 8.1580000  , 0.000000,       0,       0,       0
 7.280, 0.2076000 , 3.7623000  , 8.9877000  , 80.4443000  , 61.2183000 , 52.0248000 , -41.4270000, -1.5120000 , 8.6450000  , 0.000000,       0,       0,       0
 7.290, 0.2004000 , 3.8018000  , 9.0093000  , 80.7343000  , 61.2564000 , 52.0630000 , -41.7760000, -1.4740000 , 8.1670000  , 0.000000,       0,       0,       0
 7.300, 0.1968000 , 3.8174000  , 9.0093000  , 81.8939000  , 61.0962000 , 52.1088000 , -41.6980000, -1.1370000 , 8.0280000  , 0.000000,       0,       0,       0
 7.310, 0.1896000 , 3.8317000  , 8.9937000  , 83.6334000  , 60.6766000 , 52.1698000 , -41.6210000, -1.2610000 , 7.7290000  , 0.000000,       0,       0,       0
 7.320, 0.1872000 , 3.8568000  , 8.9590000  , 85.4492000  , 60.0815000 , 52.2537000 , -41.7010000, -1.0100000 , 7.5290000  , 0.000000,       0,       0,       0
 7.330, 0.1836000 , 3.8939000  , 8.9255000  , 86.8530000  , 59.6237000 , 52.3453000 , -41.7200000, -0.5680000 , 6.8190000  , 0.000000,       0,       0,       0
 7.340, 0.1741000 , 3.9549000  , 8.9136000  , 87.6312000  , 59.5016000 , 52.3605000 , -41.2050000, -0.7060000 , 7.3730000  , 0.000000,       0,       0,       0
 7.350, 0.1537000 , 4.0458000  , 8.9124000  , 87.7838000  , 59.7305000 , 52.3071000 , -41.2950000, -0.6240000 , 7.9910000  , 0.000000,       0,       0,       0
 7.360, 0.1071000 , 4.1404000  , 8.9028000  , 87.3413000  , 60.2417000 , 52.3224000 , -41.5140000, -0.7220000 , 7.4010000  , 0.000000,       0,       0,       0
 7.370, 0.0473000 , 4.2121000  , 8.8813000  , 86.3647000  , 60.8902000 , 52.5665000 , -41.6880000, -0.2420000 , 7.4820000  , 0.000000,       0,       0,       0
 7.380, -0.0066000, 4.2636000  , 8.8633000  , 84.9762000  , 61.4700000 , 53.0243000 , -41.5040000, -0.3020000 , 7.9130000  , 0.000000,       0,       0,       0
 7.390, -0.0341000, 4.3078000  , 8.8394000  , 83.1604000  , 61.8591000 , 53.5660000 , -41.7090000, -0.3000000 , 7.4270000  , 0.000000,       0,       0,       0
 7.400, -0.0150000, 4.3533000  , 8.8095000  , 80.7419000  , 62.2482000 , 53.8788000 , -41.5310000, 0.1370000  , 8.0420000  , 0.000000,       0,       0,       0
 7.410, 0.0461000 , 4.3916000  , 8.7927000  , 77.7969000  , 62.8204000 , 53.7186000 , -41.4960000, -0.0140000 , 7.3710000  , 0.000000,       0,       0,       0
 7.420, 0.1119000 , 4.4011000  , 8.8035000  , 74.8138000  , 63.4995000 , 53.1769000 , -41.5700000, -0.1450000 , 6.9400000  , 0.000000,       0,       0,       0
 7.430, 0.1573000 , 4.3808000  , 8.8525000  , 72.6471000  , 64.0259000 , 52.5055000 , -41.5220000, 0.1680000  , 7.5940000  , 0.000000,       0,       0,       0
 7.440, 0.1824000 , 4.3509000  , 8.9411000  , 72.2504000  , 64.1022000 , 51.9562000 , -41.6890000, 0.1870000  , 7.0970000  , 0.000000,       0,       0,       0
 7.450, 0.1729000 , 4.3425000  , 9.0284000  , 74.1119000  , 63.4308000 , 52.0172000 , -41.5360000, 0.4060000  , 7.5050000  , 0.000000,       0,       0,       0
 7.460, 0.1382000 , 4.3748000  , 9.0750000  , 77.7588000  , 62.1719000 , 53.0243000 , -41.6320000, 0.6610000  , 7.5950000  , 0.000000,       0,       0,       0
 7.470, 0.1011000 , 4.4346000  , 9.0798000  , 82.2754000  , 60.6842000 , 54.7180000 , -41.3220000, 0.2680000  , 7.9580000  , 0.000000,       0,       0,       0
 7.480, 0.0831000 , 4.4945000  , 9.0416000  , 86.8073000  , 59.2194000 , 56.5948000 , -41.5500000, 0.6510000  , 7.4880000  , 0.000000,       0,       0,       0
 7.490, 0.0927000 , 4.5459000  , 8.9542000  , 90.5304000  , 58.0292000 , 58.2047000 , -41.5170000, 1.0860000  , 7.9780000  , 0.000000,       0,       0,       0
 7.500, 0.1370000 , 4.5842000  , 8.8274000  , 92.8345000  , 57.3502000 , 59.2270000 , -41.1860000, 0.8310000  , 7.6880000  , 0.000000,       0,       0,       0
 7.510, 0.1968000 , 4.6093000  , 8.7006000  , 93.5974000  , 57.2433000 , 59.5093000 , -41.6310000, 1.2810000  , 7.3740000  , 0.000000,       0,       0,       0
 7.520, 0.2422000 , 4.6249000  , 8.5977000  , 93.1320000  , 57.4875000 , 59.1736000 , -41.4780000, 1.1470000  , 8.1400000  , 0.000000,       0,       0,       0
 7.530, 0.2638000 , 4.6356000  , 8.5188000  , 91.9800000  , 57.8766000 , 58.4564000 , -41.9160000, 1.6400000  , 6.7710000  , 0.000000,       0,       0,       0
 7.540, 0.2781000 , 4.6751000  , 8.4326000  , 89.9811000  , 58.6319000 , 57.0450000 , -41.7380000, 1.5190000  , 7.4730000  , 0.000000,       0,       0,       0
 7.550, 0.2662000 , 4.7229000  , 8.3860000  , 88.8062000  , 59.2117000 , 56.1295000 , -41.5770000, 1.6140000  , 7.2470000  , 0.000000,       0,       0,       0
 7.560, 0.2458000 , 4.7816000  , 8.3477000  , 87.8830000  , 59.7534000 , 55.4581000 , -41.6480000, 1.4660000  , 7.1470000  , 0.000000,       0,       0,       0
 7.570, 0.2291000 , 4.8402000  , 8.3286000  , 87.3108000  , 60.1120000 , 55.0995000 , -41.9080000, 1.5480000  , 7.9160000  , 0.000000,       0,       0,       0
 7.580, 0.2076000 , 4.8725000  , 8.3298000  , 87.3184000  , 60.1959000 , 55.1071000 , -41.7720000, 1.7080000  , 7.9270000  , 0.000000,       0,       0,       0
 7.590, 0.1836000 , 4.8737000  , 8.3417000  , 88.0585000  , 59.9670000 , 55.3589000 , -41.7270000, 2.1410000  , 7.1600000  , 0.000000,       0,       0,       0
 7.600, 0.1681000 , 4.8653000  , 8.3549000  , 89.5309000  , 59.5016000 , 55.6107000 , -41.7810000, 2.2090000  , 7.8580000  , 0.000000,       0,       0,       0
 7.610, 0.1573000 , 4.8785000  , 8.3525000  , 91.4383000  , 58.9905000 , 55.6183000 , -41.7720000, 2.4190000  , 7.1280000  , 0.000000,       0,       0,       0
 7.620, 0.1442000 , 4.9251000  , 8.3274000  , 93.1778000  , 58.6319000 , 55.3970000 , -41.4090000, 2.6190000  , 6.9080000  , 0.000000,       0,       0,       0
 7.630, 0.1238000 , 5.0089000  , 8.2807000  , 94.1925000  , 58.5175000 , 55.0842000 , -41.4770000, 2.4490000  , 6.6790000  , 0.000000,       0,       0,       0
 7.640, 0.1035000 , 5.1117000  , 8.2125000  , 94.2001000  , 58.5861000 , 54.8096000 , -41.4010000, 2.4970000  , 7.6080000  , 0.000000,       0,       0,       0
 7.650, 0.0963000 , 5.2110000  , 8.1372000  , 93.0405000  , 58.8379000 , 54.5959000 , -41.8040000, 2.6950000  , 7.4080000  , 0.000000,       0,       0,       0
 7.660, 0.0975000 , 5.2888000  , 8.0761000  , 90.9729000  , 59.2575000 , 54.3060000 , -41.5830000, 2.5520000  , 7.0190000  , 0.000000,       0,       0,       0
 7.670, 0.1023000 , 5.3426000  , 8.0546000  , 88.6383000  , 59.9213000 , 53.7720000 , -41.7670000, 2.8430000  , 7.6400000  , 0.000000,       0,       0,       0
 7.680, 0.0951000 , 5.3773000  , 8.0642000  , 86.7920000  , 60.7681000 , 53.0167000 , -41.8090000, 2.8780000  , 7.6570000  , 0.000000,       0,       0,       0
 7.690, 0.0700000 , 5.3917000  , 8.0977000  , 85.9604000  , 61.6226000 , 52.3529000 , -41.7500000, 3.0890000  , 7.3500000  , 0.000000,       0,       0,       0
 7.700, 0.0484000 , 5.3941000  , 8.1384000  , 86.3342000  , 62.1643000 , 52.1088000 , -41.7620000, 2.9440000  , 7.1060000  , 0.000000,       0,       0,       0
 7.710, 0.0449000 , 5.3905000  , 8.1587000  , 87.8601000  , 62.1262000 , 52.3529000 , -41.4720000, 2.9150000  , 7.6410000  , 0.000000,       0,       0,       0
 7.720, 0.0568000 , 5.3953000  , 8.1491000  , 90.0955000  , 61.5005000 , 52.9175000 , -41.7090000, 3.2660000  , 6.9150000  , 0.000000,       0,       0,       0
 7.730, 0.0664000 , 5.4264000  , 8.1192000  , 92.5064000  , 60.5774000 , 53.5355000 , -41.6880000, 3.4310000  , 7.2240000  , 0.000000,       0,       0,       0
 7.740, 0.0736000 , 5.4874000  , 8.0761000  , 94.6884000  , 59.7382000 , 53.8712000 , -41.4650000, 4.0430000  , 6.9250000  , 0.000000,       0,       0,       0
 7.750, 0.0784000 , 5.5735000  , 8.0343000  , 96.4127000  , 59.3948000 , 53.7262000 , -41.4170000, 3.8110000  , 6.9690000  , 0.000000,       0,       0,       0
 7.760, 0.0640000 , 5.6812000  , 7.9960000  , 97.6334000  , 59.6085000 , 53.2455000 , -41.4880000, 4.0910000  , 5.7300000  , 0.000000,       0,       0,       0
 7.770, 0.0413000 , 5.7865000  , 7.9541000  , 98.2132000  , 60.2188000 , 52.7954000 , -41.5420000, 4.1810000  , 6.6630000  , 0.000000,       0,       0,       0
 7.780, 0.0197000 , 5.8762000  , 7.9039000  , 98.1216000  , 61.0123000 , 52.5131000 , -41.4850000, 4.3340000  , 7.1190000  , 0.000000,       0,       0,       0
 7.790, -0.0054000, 5.9479000  , 7.8500000  , 97.4655000  , 61.7981000 , 52.4216000 , -41.6960000, 4.7250000  , 6.5500000  , 0.000000,       0,       0,       0
 7.800, -0.0245000, 5.9910000  , 7.7878000  , 96.3440000  , 62.2864000 , 52.5894000 , -41.4710000, 4.5320000  , 6.6960000  , 0.000000,       0,       0,       0
 7.810, -0.0341000, 6.0054000  , 7.7185000  , 94.9707000  , 62.3169000 , 53.0548000 , -41.6670000, 4.7960000  , 7.5670000  , 0.000000,       0,       0,       0
 7.820, -0.0365000, 6.0018000  , 7.6491000  , 93.5287000  , 61.8134000 , 53.7872000 , -41.5170000, 4.8610000  , 7.3310000  , 0.000000,       0,       0,       0
 7.830, -0.0329000, 5.9982000  , 7.5869000  , 92.1249000  , 60.8826000 , 54.7485000 , -41.7210000, 4.9360000  , 7.5530000  , 0.000000,       0,       0,       0
 7.840, -0.0377000, 6.0030000  , 7.5522000  , 91.0110000  , 59.6695000 , 55.8777000 , -41.4500000, 5.0500000  , 6.5420000  , 0.000000,       0,       0,       0
 7.850, -0.0496000, 6.0281000  , 7.5546000  , 90.5075000  , 58.2428000 , 57.0526000 , -41.6390000, 5.3280000  , 6.7230000  , 0.000000,       0,       0,       0
 7.860, -0.0520000, 6.0927000  , 7.5582000  , 90.7288000  , 56.7398000 , 58.0826000 , -41.5620000, 5.1820000  , 6.7310000  , 0.000000,       0,       0,       0
 7.870, -0.0341000, 6.1956000  , 7.5354000  , 91.2552000  , 55.6946000 , 58.6853000 , -41.8150000, 5.3150000  , 7.0040000  , 0.000000,       0,       0,       0
 7.880, -0.0066000, 6.3188000  , 7.5199000  , 91.6977000  , 55.6564000 , 58.5175000 , -41.6750000, 5.4000000  , 6.6000000  , 0.000000,       0,       0,       0
 7.890, 0.0018000 , 6.4277000  , 7.5318000  , 92.2546000  , 56.4117000 , 57.4799000 , -41.6150000, 5.4590000  , 6.9610000  , 0.000000,       0,       0,       0
 7.900, -0.0173000, 6.4935000  , 7.5438000  , 93.3456000  , 57.2433000 , 55.9769000 , -41.5030000, 5.4640000  , 6.7150000  , 0.000000,       0,       0,       0
 7.910, -0.0496000, 6.5413000  , 7.5486000  , 95.0317000  , 57.6477000 , 54.6494000 , -41.8180000, 5.8780000  , 6.2690000  , 0.000000,       0,       0,       0
 7.920, -0.0831000, 6.6023000  , 7.5342000  , 97.0612000  , 57.5027000 , 53.7415000 , -41.4960000, 5.7510000  , 6.3860000  , 0.000000,       0,       0,       0
 7.930, -0.0939000, 6.6657000  , 7.4816000  , 98.8922000  , 56.9763000 , 53.3905000 , -41.4770000, 5.9440000  , 6.4730000  , 0.000000,       0,       0,       0
 7.940, -0.0903000, 6.6992000  , 7.4026000  , 100.0290000 , 56.2286000 , 53.7033000 , -41.4980000, 6.3380000  , 5.8360000  , 0.000000,       0,       0,       0
 7.950, -0.0867000, 6.6849000  , 7.3105000  , 100.3647000 , 55.3589000 , 54.4891000 , -41.5580000, 6.0990000  , 5.5110000  , 0.000000,       0,       0,       0
 7.960, -0.0736000, 6.6406000  , 7.1921000  , 99.9985000  , 54.6875000 , 55.3284000 , -41.3840000, 6.3660000  , 6.2000000  , 0.000000,       0,       0,       0
 7.970, -0.0496000, 6.6334000  , 7.0952000  , 99.0829000  , 54.7791000 , 55.6870000 , -41.1850000, 6.4740000  , 6.4490000  , 0.000000,       0,       0,       0
 7.980, -0.0305000, 6.6777000  , 7.0438000  , 97.9996000  , 55.5191000 , 55.3284000 , -41.4870000, 6.4870000  , 5.9880000  , 0.000000,       0,       0,       0
 7.990, -0.0437000, 6.7399000  , 7.0330000  , 97.0840000  , 56.4041000 , 54.7104000 , -41.7120000, 6.6410000  , 5.8090000  , 0.000000,       0,       0,       0
 8.000, -0.0724000, 6.8260000  , 7.0461000  , 96.5500000  , 57.0831000 , 54.2831000 , -41.4690000, 6.6400000  , 5.7620000  , 0.000000,       0,       0,       0
 8.010, -0.0939000, 6.9217000  , 7.0497000  , 96.3745000  , 57.6096000 , 54.1382000 , -41.6930000, 7.1200000  , 5.7290000  , 0.000000,       0,       0,       0
 8.020, -0.1071000, 7.0091000  , 7.0449000  , 96.4203000  , 58.1360000 , 54.1534000 , -41.5670000, 7.1820000  , 5.9790000  , 0.000000,       0,       0,       0
 8.030, -0.1298000, 7.0521000  , 7.0210000  , 96.7102000  , 58.6090000 , 54.1458000 , -41.6720000, 7.1490000  , 6.0190000  , 0.000000,       0,       0,       0
 8.040, -0.1537000, 7.0378000  , 6.9827000  , 97.3434000  , 59.0515000 , 54.0924000 , -41.2780000, 7.3590000  , 5.6290000  , 0.000000,       0,       0,       0
 8.050, -0.1872000, 6.9768000  , 6.9397000  , 98.5947000  , 59.4025000 , 53.8940000 , -41.6360000, 7.7390000  , 5.7720000  , 0.000000,       0,       0,       0
 8.060, -0.2016000, 6.9504000  , 6.8547000  , 100.3952000 , 59.1888000 , 53.7109000 , -41.6870000, 7.5800000  , 4.9230000  , 0.000000,       0,       0,       0
 8.070, -0.1513000, 7.0354000  , 6.7399000  , 101.6159000 , 58.9294000 , 53.6346000 , -41.5050000, 7.7620000  , 5.7390000  , 0.000000,       0,       0,       0
 8.080, -0.1083000, 7.1718000  , 6.6514000  , 101.4328000 , 59.1049000 , 53.4439000 , -41.4200000, 7.7610000  , 5.7280000  , 0.000000,       0,       0,       0
 8.090, -0.0927000, 7.2974000  , 6.6059000  , 99.9908000  , 59.5551000 , 53.1464000 , -41.4650000, 8.1160000  , 5.7960000  , 0.000000,       0,       0,       0
 8.100, -0.1166000, 7.3691000  , 6.6035000  , 98.0682000  , 59.7687000 , 53.1311000 , -41.4780000, 7.9240000  , 5.0830000  , 0.000000,       0,       0,       0
 8.110, -0.1621000, 7.3847000  , 6.6143000  , 96.6187000  , 59.2499000 , 53.7338000 , -41.6830000, 8.0160000  , 5.4620000  , 0.000000,       0,       0,       0
 8.120, -0.1956000, 7.3452000  , 6.5748000  , 96.3593000  , 57.6401000 , 55.3970000 , -41.7050000, 8.3220000  , 4.9200000  , 0.000000,       0,       0,       0
 8.130, -0.1693000, 7.3225000  , 6.4911000  , 97.2595000  , 56.9763000 , 55.9082000 , -41.8330000, 8.4890000  , 5.2670000  , 0.000000,       0,       0,       0
 8.140, -0.1226000, 7.3344000  , 6.3762000  , 98.3658000  , 57.1289000 , 55.2444000 , -41.6450000, 8.6220000  , 5.3070000  , 0.000000,       0,       0,       0
 8.150, -0.0819000, 7.3919000  , 6.2566000  , 99.0524000  , 58.0292000 , 53.6118000 , -41.6870000, 8.6290000  , 4.8640000  , 0.000000,       0,       0,       0
 8.160, -0.0544000, 7.4816000  , 6.1549000  , 98.8693000  , 59.1736000 , 51.7044000 , -41.7080000, 8.8530000  , 5.3160000  , 0.000000,       0,       0,       0
 8.170, -0.0353000, 7.5809000  , 6.0831000  , 97.7020000  , 60.0891000 , 50.1633000 , -41.8210000, 8.9760000  , 5.5560000  , 0.000000,       0,       0,       0
 8.180, -0.0281000, 7.6706000  , 6.0508000  , 95.8710000  , 60.5011000 , 49.2401000 , -41.7100000, 9.1800000  , 5.4820000  , 0.000000,       0,       0,       0
 8.190, -0.0401000, 7.7316000  , 6.0425000  , 94.0018000  , 60.2646000 , 48.8663000 , -41.5880000, 9.2670000  , 5.1860000  , 0.000000,       0,       0,       0
 8.200, -0.0676000, 7.7591000  , 6.0317000  , 92.6437000  , 59.6237000 , 48.8281000 , -41.7180000, 9.1870000  , 4.7660000  , 0.000000,       0,       0,       0
