time,accel_x,accel_y,accel_z,gyro_x,gyro_y,gyro_z,mag_x,mag_y,mag_z,baro,gps_lat,gps_lon,gps_alt
1.417,0.0012000,-0.0012000,9.7969000,0.0229000,0.0076000,0.0000000,-29.1160000,19.2370000,16.8330000,101288.570000,0,0,0
1.427,0.0000000,-0.0024000,9.7957000,0.0229000,0.0076000,0.0076000,-29.4310000,19.3880000,16.8950000,101288.570000,0,0,0
1.437,0.0012000,-0.0024000,9.7957000,0.0229000,0.0076000,0.0153000,-29.2730000,19.2170000,16.4030000,101288.570000,0,0,0
1.447,0.0012000,-0.0012000,9.7957000,0.0229000,0.0000000,0.0229000,-29.4950000,19.3610000,16.4900000,101288.570000,0,0,0
1.457,0.0012000,0.0000000,9.7957000,0.0153000,-0.0076000,0.0153000,-29.5090000,19.4780000,16.4500000,101281.660000,0,0,0
1.467,0.0012000,-0.0012000,9.7957000,0.0153000,-0.0153000,0.0076000,-29.3410000,19.3770000,15.7650000,101281.660000,0,0,0
1.477,0.0012000,-0.0012000,9.7957000,0.0153000,-0.0153000,0.0076000,-29.3490000,19.1760000,16.0720000,101286.030000,0,0,0
1.487,0.0000000,-0.0012000,9.7957000,0.0076000,-0.0076000,0.0000000,-29.5920000,19.4710000,16.4060000,101286.030000,0,0,0
1.497,0.0000000,-0.0012000,9.7969000,0.0076000,-0.0076000,0.0000000,-29.3510000,19.4620000,15.9280000,101286.500000,0,0,0
1.507,-0.0012000,0.0000000,9.7981000,0.0153000,0.0000000,0.0000000,-29.5500000,19.3270000,16.4540000,101286.500000,0,0,0
1.517,-0.0012000,0.0012000,9.7969000,0.0153000,0.0000000,0.0076000,-29.5910000,19.0990000,16.3530000,101282.080000,0,0,0
1.527,-0.0012000,0.0000000,9.7957000,0.0153000,0.0000000,0.0153000,-29.1480000,19.2850000,16.1280000,101282.080000,0,0,0
1.537,0.0000000,0.0012000,9.7957000,0.0153000,0.0000000,0.0229000,-29.2710000,18.9800000,16.2420000,101286.340000,0,0,0
1.547,0.0000000,0.0000000,9.7969000,0.0229000,0.0000000,0.0229000,-29.8660000,19.4640000,16.4750000,101286.340000,0,0,0
1.557,0.0000000,0.0000000,9.7981000,0.0229000,0.0000000,0.0153000,-29.6420000,19.0830000,15.9710000,101279.970000,0,0,0
1.567,0.0000000,0.0000000,9.7993000,0.0153000,0.0000000,0.0229000,-29.3040000,19.3280000,16.4460000,101279.970000,0,0,0
1.577,0.0012000,0.0000000,9.8005000,0.0153000,-0.0076000,0.0229000,-29.7540000,19.1650000,15.7000000,101284.620000,0,0,0
1.587,0.0024000,0.0000000,9.8005000,0.0076000,0.0000000,0.0153000,-29.6480000,19.2950000,16.5340000,101284.620000,0,0,0
1.597,0.0024000,-0.0012000,9.7993000,0.0076000,0.0000000,0.0153000,-29.7330000,19.0910000,16.3380000,101285.760000,0,0,0
1.607,0.0012000,-0.0012000,9.7969000,0.0076000,0.0000000,0.0076000,-29.8270000,19.2870000,16.2960000,101285.760000,0,0,0
1.617,0.0000000,-0.0012000,9.7969000,0.0000000,0.0000000,0.0076000,-29.4100000,19.2440000,16.4040000,101286.230000,0,0,0
1.627,0.0012000,0.0000000,9.7957000,0.0076000,0.0000000,0.0000000,-29.3760000,19.3780000,15.9910000,101286.230000,0,0,0
1.637,0.0024000,-0.0012000,9.7945000,0.0076000,0.0000000,0.0000000,-29.3420000,19.0730000,16.1460000,101284.050000,0,0,0
1.647,0.0036000,-0.0012000,9.7945000,0.0076000,0.0000000,0.0076000,-29.3110000,19.3000000,16.6440000,101284.050000,0,0,0
1.657,0.0036000,-0.0012000,9.7957000,0.0076000,0.0000000,0.0076000,-29.5090000,19.1680000,16.3210000,101284.540000,0,0,0
1.667,0.0024000,-0.0012000,9.7957000,0.0076000,0.0000000,0.0076000,-29.6890000,19.0580000,16.1830000,101284.540000,0,0,0
1.677,0.0012000,0.0000000,9.7957000,0.0076000,0.0076000,0.0153000,-29.6340000,18.9480000,16.6820000,101280.120000,0,0,0
1.687,0.0024000,-0.0012000,9.7957000,0.0000000,0.0153000,0.0076000,-29.0870000,19.2210000,16.5590000,101280.120000,0,0,0
1.697,0.0024000,0.0000000,9.7957000,0.0000000,0.0153000,0.0000000,-29.3830000,19.1980000,16.5150000,101279.890000,0,0,0
1.707,0.0024000,0.0012000,9.7969000,0.0000000,0.0153000,0.0000000,-29.5740000,19.3690000,17.3610000,101279.890000,0,0,0
1.717,0.0024000,0.0024000,9.7969000,0.0000000,0.0153000,0.0076000,-28.8930000,19.2870000,17.0970000,101286.180000,0,0,0
1.727,0.0024000,0.0012000,9.7981000,0.0000000,0.0153000,0.0076000,-29.2270000,19.0530000,16.8420000,101286.180000,0,0,0
1.737,0.0036000,0.0000000,9.7981000,-0.0076000,0.0153000,0.0153000,-29.0470000,19.0540000,16.9500000,101288.280000,0,0,0
1.747,0.0036000,-0.0024000,9.7969000,-0.0076000,0.0153000,0.0153000,-29.2610000,19.1620000,17.0190000,101288.280000,0,0,0
1.757,0.0024000,-0.0036000,9.7957000,0.0000000,0.0153000,0.0153000,-29.4850000,19.5940000,16.4770000,101281.570000,0,0,0
1.767,0.0024000,-0.0048000,9.7945000,0.0000000,0.0153000,0.0076000,-29.3120000,19.4430000,16.8320000,101281.570000,0,0,0
1.777,0.0036000,-0.0048000,9.7945000,0.0000000,0.0153000,-0.0076000,-29.1350000,19.1950000,16.7790000,101280.150000,0,0,0
1.787,0.0036000,-0.0036000,9.7945000,0.0000000,0.0153000,-0.0076000,-29.8790000,19.4570000,17.3030000,101280.150000,0,0,0
1.797,0.0048000,-0.0024000,9.7945000,0.0076000,0.0153000,-0.0153000,-29.4030000,19.1210000,17.1130000,101279.780000,0,0,0
1.807,0.0060000,-0.0012000,9.7945000,0.0076000,0.0153000,-0.0076000,-29.7490000,19.0250000,17.1870000,101279.780000,0,0,0
1.817,0.0048000,-0.0012000,9.7957000,0.0153000,0.0153000,-0.0076000,-29.3940000,19.2030000,17.0230000,101281.770000,0,0,0
1.827,0.0036000,-0.0024000,9.7981000,0.0153000,0.0076000,0.0000000,-29.7170000,19.3320000,17.2560000,101281.770000,0,0,0
1.837,0.0024000,-0.0024000,9.7993000,0.0153000,0.0076000,0.0076000,-29.3910000,19.6090000,16.5400000,101285.820000,0,0,0
1.847,0.0024000,-0.0012000,9.7993000,0.0076000,0.0076000,0.0076000,-29.3020000,19.4470000,16.5840000,101285.820000,0,0,0
1.857,0.0012000,0.0012000,9.7957000,0.0076000,0.0076000,0.0076000,-29.2860000,19.2090000,16.2430000,101285.670000,0,0,0
1.867,0.0000000,0.0024000,9.7945000,0.0076000,0.0076000,0.0000000,-29.4560000,19.1460000,16.4400000,101285.670000,0,0,0
1.877,-0.0012000,0.0024000,9.7945000,0.0076000,0.0076000,0.0000000,-29.4130000,19.2560000,16.8310000,101286.520000,0,0,0
1.887,-0.0024000,0.0024000,9.7945000,0.0076000,0.0076000,0.0000000,-29.4030000,19.1000000,16.3470000,101286.520000,0,0,0
1.897,-0.0024000,0.0012000,9.7957000,0.0153000,0.0076000,0.0076000,-29.0750000,19.1410000,16.2390000,101286.740000,0,0,0
1.907,-0.0012000,-0.0012000,9.7969000,0.0229000,0.0076000,0.0076000,-29.3410000,19.3780000,16.2970000,101286.740000,0,0,0
1.917,0.0012000,-0.0036000,9.7981000,0.0229000,0.0076000,0.0153000,-29.5280000,19.0370000,16.6270000,101284.050000,0,0,0
1.927,0.0024000,-0.0024000,9.8017000,0.0229000,0.0076000,0.0153000,-29.2900000,19.5020000,16.4660000,101284.050000,0,0,0
1.937,0.0024000,0.0012000,9.8053000,0.0153000,0.0076000,0.0229000,-29.4530000,19.2430000,16.4070000,101282.250000,0,0,0
1.947,-0.0012000,0.0036000,9.8041000,0.0076000,0.0076000,0.0229000,-29.6920000,19.1770000,16.8320000,101282.250000,0,0,0
1.957,-0.0036000,0.0024000,9.7993000,0.0000000,0.0076000,0.0153000,-29.3570000,19.3900000,16.2870000,101284.540000,0,0,0
1.967,-0.0036000,0.0000000,9.7969000,0.0076000,0.0076000,0.0153000,-29.5580000,19.1880000,16.5670000,101284.540000,0,0,0
1.977,-0.0036000,-0.0036000,9.7969000,0.0076000,0.0153000,0.0076000,-29.2960000,19.0400000,16.7370000,101286.300000,0,0,0
1.987,0.0000000,-0.0036000,9.7981000,0.0153000,0.0153000,0.0076000,-29.0540000,19.2330000,16.1480000,101286.300000,0,0,0
1.997,0.0036000,-0.0024000,9.7969000,0.0153000,0.0076000,0.0076000,-29.1230000,19.2100000,15.5760000,101285.550000,0,0,0
2.007,0.0048000,-0.0012000,9.7957000,0.0229000,0.0076000,0.0076000,-29.4750000,19.1130000,16.2710000,101285.550000,0,0,0
2.017,0.0048000,-0.0012000,9.7981000,0.0229000,0.0076000,0.0153000,-29.5970000,19.1120000,15.9360000,101281.900000,0,0,0
2.027,0.0036000,0.0000000,9.8005000,0.0153000,0.0076000,0.0229000,-29.5540000,19.4080000,16.3660000,101281.900000,0,0,0
2.037,0.0000000,0.0000000,9.7993000,0.0153000,0.0153000,0.0229000,-29.5290000,19.4980000,15.8950000,101279.950000,0,0,0
2.047,-0.0024000,0.0000000,9.7981000,0.0076000,0.0153000,0.0229000,-29.5310000,19.5400000,16.2380000,101279.950000,0,0,0
2.057,-0.0036000,0.0000000,9.7981000,0.0000000,0.0153000,0.0153000,-29.7460000,19.4200000,15.2600000,101286.520000,0,0,0
2.067,-0.0024000,-0.0012000,9.7993000,0.0000000,0.0153000,0.0076000,-29.1350000,19.7800000,16.0530000,101286.520000,0,0,0
2.077,0.0012000,0.0000000,9.7981000,0.0000000,0.0153000,0.0076000,-29.3650000,19.3180000,16.0640000,101284.270000,0,0,0
2.087,0.0048000,0.0012000,9.7969000,0.0000000,0.0076000,0.0076000,-29.1820000,19.5760000,16.8980000,101284.270000,0,0,0
2.097,0.0072000,0.0000000,9.7981000,0.0229000,0.0076000,0.0153000,-29.5850000,19.2990000,16.4060000,101280.200000,0,0,0
2.107,0.0060000,0.0000000,9.7981000,0.0153000,0.0076000,0.0076000,-29.5960000,19.4830000,16.4200000,101280.200000,0,0,0
2.117,0.0036000,0.0000000,9.7981000,0.0153000,0.0076000,0.0076000,-29.5430000,19.4630000,16.4930000,101279.820000,0,0,0
2.127,0.0012000,-0.0012000,9.7981000,0.0153000,0.0076000,0.0076000,-29.2400000,19.5010000,16.6870000,101279.820000,0,0,0
2.137,-0.0024000,-0.0012000,9.7993000,0.0076000,0.0076000,0.0000000,-29.3720000,19.3030000,16.0660000,101286.230000,0,0,0
2.147,-0.0036000,-0.0012000,9.7981000,0.0076000,0.0000000,0.0000000,-29.4710000,19.0950000,16.2880000,101286.230000,0,0,0
2.157,-0.0024000,-0.0024000,9.7957000,0.0153000,0.0000000,0.0000000,-29.4790000,19.2600000,16.5280000,101284.300000,0,0,0
2.167,0.0000000,-0.0012000,9.7981000,0.0076000,0.0000000,0.0000000,-29.4490000,19.4710000,16.3100000,101284.300000,0,0,0
2.177,0.0024000,0.0000000,9.8005000,0.0000000,0.0000000,0.0076000,-29.5530000,19.2580000,16.4110000,101285.910000,0,0,0
2.187,0.0036000,0.0012000,9.7993000,-0.0076000,0.0076000,0.0076000,-29.5450000,19.2820000,16.4500000,101285.910000,0,0,0
2.197,0.0048000,-0.0012000,9.7945000,0.0000000,0.0076000,0.0076000,-29.5200000,19.2060000,16.5280000,101284.410000,0,0,0
2.207,0.0048000,-0.0036000,9.7945000,0.0076000,0.0076000,0.0076000,-29.2360000,19.2450000,16.9160000,101284.410000,0,0,0
2.217,0.0036000,-0.0024000,9.7981000,0.0076000,0.0076000,0.0076000,-29.4570000,19.6570000,16.8620000,101286.090000,0,0,0
2.227,0.0012000,-0.0012000,9.8005000,0.0000000,0.0000000,0.0153000,-29.1400000,19.3990000,17.2300000,101286.090000,0,0,0
2.237,-0.0024000,0.0000000,9.7993000,0.0076000,0.0000000,0.0153000,-29.3140000,19.3830000,17.3210000,101279.760000,0,0,0
2.247,-0.0036000,0.0000000,9.7981000,0.0076000,0.0000000,0.0076000,-29.3230000,19.2590000,16.7360000,101279.760000,0,0,0
2.257,-0.0036000,-0.0012000,9.7993000,0.0000000,0.0000000,0.0000000,-29.2870000,19.1150000,16.4460000,101279.950000,0,0,0
2.267,-0.0012000,-0.0012000,9.7993000,0.0000000,0.0000000,-0.0076000,-29.1510000,19.3370000,16.9010000,101279.950000,0,0,0
2.277,0.0024000,0.0000000,9.7969000,-0.0076000,0.0000000,-0.0153000,-29.1550000,19.2760000,16.6410000,101283.650000,0,0,0
2.287,0.0060000,0.0000000,9.7957000,-0.0076000,0.0076000,-0.0076000,-29.4130000,19.4520000,16.1070000,101283.650000,0,0,0
2.297,0.0072000,0.0000000,9.7981000,-0.0076000,0.0000000,0.0000000,-29.2500000,19.1660000,16.2560000,101278.900000,0,0,0
2.307,0.0060000,0.0000000,9.7993000,-0.0076000,0.0000000,0.0000000,-29.2180000,19.1680000,16.3890000,101278.900000,0,0,0
2.317,0.0036000,0.0000000,9.7981000,-0.0076000,0.0000000,0.0076000,-29.5910000,19.3140000,16.5190000,101284.410000,0,0,0
2.327,0.0012000,0.0012000,9.7969000,-0.0076000,0.0000000,0.0076000,-29.4260000,19.4150000,16.8770000,101284.410000,0,0,0
2.337,-0.0012000,0.0012000,9.7981000,-0.0076000,0.0000000,0.0076000,-29.2880000,19.2500000,16.2590000,101286.110000,0,0,0
2.347,0.0000000,0.0012000,9.7981000,-0.0076000,0.0000000,0.0076000,-29.3890000,19.1260000,16.9280000,101286.110000,0,0,0
2.357,0.0012000,0.0024000,9.7981000,-0.0076000,0.0000000,0.0000000,-29.3740000,19.0120000,16.7550000,101281.360000,0,0,0
2.367,0.0036000,0.0024000,9.7969000,0.0000000,0.0000000,0.0076000,-29.5790000,19.0660000,16.4910000,101281.360000,0,0,0
2.377,0.0024000,0.0012000,9.7969000,0.0153000,-0.0076000,0.0153000,-29.0740000,19.0170000,16.4150000,101281.360000,0,0,0
2.387,0.0012000,0.0000000,9.7981000,0.0153000,0.0000000,0.0153000,-29.3070000,19.3840000,16.6370000,101281.360000,0,0,0
2.397,-0.0012000,0.0000000,9.7981000,0.0153000,0.0000000,0.0229000,-29.4040000,19.0100000,16.7840000,101286.110000,0,0,0
2.407,-0.0048000,0.0012000,9.7969000,0.0153000,0.0076000,0.0153000,-28.9920000,19.2730000,16.4630000,101286.110000,0,0,0
2.417,-0.0060000,0.0012000,9.7957000,0.0153000,0.0076000,0.0153000,-29.2640000,19.0810000,16.7810000,101285.890000,0,0,0
2.427,-0.0036000,0.0024000,9.7981000,0.0153000,0.0000000,0.0076000,-29.2680000,19.3570000,16.1290000,101285.890000,0,0,0
2.437,0.0000000,0.0036000,9.7993000,0.0153000,0.0000000,0.0076000,-29.1150000,19.3230000,16.5070000,101283.980000,0,0,0
2.447,0.0048000,0.0036000,9.7969000,0.0229000,0.0076000,0.0076000,-29.2220000,19.2140000,16.2990000,101283.980000,0,0,0
2.457,0.0072000,0.0024000,9.7945000,0.0229000,0.0000000,0.0076000,-29.3640000,19.3480000,16.8990000,101287.840000,0,0,0
2.467,0.0072000,0.0024000,9.7957000,0.0153000,0.0000000,0.0000000,-28.9540000,19.5290000,16.7380000,101287.840000,0,0,0
2.477,0.0060000,0.0024000,9.7981000,0.0153000,0.0000000,0.0000000,-28.9610000,19.2610000,16.6630000,101285.950000,0,0,0
2.487,0.0036000,0.0024000,9.8005000,0.0153000,0.0000000,-0.0076000,-29.5840000,19.3770000,16.9130000,101285.950000,0,0,0
2.497,0.0000000,0.0012000,9.7993000,0.0153000,-0.0076000,0.0000000,-29.2420000,19.2960000,16.7710000,101282.510000,0,0,0
2.507,-0.0024000,0.0000000,9.7981000,0.0153000,-0.0076000,0.0076000,-29.3360000,19.2810000,16.3220000,101282.510000,0,0,0
2.517,-0.0012000,-0.0012000,9.7993000,0.0153000,-0.0076000,0.0153000,-29.2410000,19.2690000,16.6420000,101282.710000,0,0,0
2.527,0.0000000,-0.0024000,9.7981000,0.0229000,0.0000000,0.0153000,-29.4360000,19.4970000,17.3540000,101282.710000,0,0,0
2.537,-0.0012000,-0.0024000,9.7969000,0.0153000,0.0076000,0.0153000,-29.2080000,19.3450000,17.1330000,101285.950000,0,0,0
2.547,-0.0024000,-0.0012000,9.7945000,0.0153000,0.0076000,0.0076000,-29.3420000,19.3770000,17.5360000,101285.950000,0,0,0
2.557,-0.0012000,-0.0012000,9.7957000,0.0153000,0.0076000,0.0076000,-29.4270000,19.1890000,17.2760000,101286.510000,0,0,0
2.567,0.0000000,-0.0012000,9.7957000,0.0153000,0.0153000,0.0076000,-29.2100000,19.5240000,16.8540000,101286.510000,0,0,0
2.577,0.0012000,0.0000000,9.7945000,0.0153000,0.0076000,0.0076000,-29.1810000,19.2000000,16.9530000,101284.070000,0,0,0
2.587,0.0012000,0.0000000,9.7945000,0.0153000,0.0076000,0.0076000,-29.3910000,19.5850000,17.1310000,101284.070000,0,0,0
2.597,0.0012000,0.0012000,9.7957000,0.0153000,0.0000000,0.0076000,-28.8840000,19.0810000,16.7230000,101283.840000,0,0,0
2.607,0.0012000,0.0000000,9.7969000,0.0153000,-0.0076000,0.0153000,-29.5210000,19.5220000,17.1530000,101283.840000,0,0,0
2.617,0.0012000,-0.0012000,9.7957000,0.0153000,-0.0076000,0.0076000,-29.4160000,19.3390000,16.9660000,101279.550000,0,0,0
2.627,0.0012000,-0.0012000,9.7957000,0.0153000,0.0000000,0.0076000,-29.3970000,19.6740000,17.1870000,101279.550000,0,0,0
2.637,0.0024000,-0.0024000,9.7969000,0.0153000,0.0076000,0.0076000,-29.2970000,19.4720000,16.9770000,101286.380000,0,0,0
2.647,0.0036000,-0.0024000,9.7981000,0.0229000,0.0076000,0.0076000,-29.2820000,19.8610000,17.1040000,101286.380000,0,0,0
2.657,0.0036000,0.0000000,9.7945000,0.0153000,0.0000000,0.0076000,-29.3350000,19.0930000,16.5590000,101281.510000,0,0,0
2.667,0.0036000,0.0012000,9.7945000,0.0153000,0.0000000,0.0076000,-29.5400000,19.4730000,16.7840000,101281.510000,0,0,0
2.677,0.0012000,0.0012000,9.7957000,0.0153000,0.0076000,0.0153000,-29.7190000,19.5600000,17.0890000,101286.380000,0,0,0
2.687,-0.0012000,0.0012000,9.7957000,0.0153000,0.0076000,0.0153000,-29.3160000,19.7350000,17.0810000,101286.380000,0,0,0
2.697,-0.0036000,-0.0012000,9.7957000,0.0153000,0.0076000,0.0076000,-29.2770000,19.7010000,16.6390000,101285.750000,0,0,0
2.707,-0.0048000,0.0000000,9.7993000,0.0153000,0.0076000,0.0000000,-29.4050000,19.7600000,17.3110000,101285.750000,0,0,0
2.717,-0.0036000,0.0024000,9.8029000,0.0076000,0.0076000,-0.0153000,-29.3540000,19.0740000,17.0120000,101281.700000,0,0,0
2.727,0.0000000,0.0072000,9.8005000,0.0000000,0.0153000,-0.0153000,-29.2180000,19.6730000,16.9770000,101281.700000,0,0,0
2.737,0.0036000,0.0096000,9.7969000,0.0000000,0.0229000,-0.0076000,-29.2770000,19.6850000,17.1640000,101282.350000,0,0,0
2.747,0.0060000,0.0072000,9.7957000,-0.0076000,0.0229000,-0.0076000,-29.5320000,19.5670000,17.1370000,101282.350000,0,0,0
2.757,0.0048000,0.0048000,9.7957000,-0.0076000,0.0229000,0.0000000,-29.2390000,19.4360000,16.9260000,101285.750000,0,0,0
2.767,0.0036000,0.0012000,9.7945000,0.0000000,0.0153000,0.0000000,-29.1560000,19.5210000,17.2620000,101285.750000,0,0,0
2.777,0.0012000,-0.0012000,9.7909000,0.0153000,0.0076000,0.0076000,-29.1890000,19.4930000,16.6030000,101279.610000,0,0,0
2.787,-0.0012000,-0.0024000,9.7909000,0.0229000,0.0000000,0.0076000,-29.3570000,19.6360000,17.1700000,101279.610000,0,0,0
2.797,-0.0024000,-0.0024000,9.7921000,0.0305000,0.0000000,0.0076000,-29.4190000,19.4060000,16.1850000,101279.620000,0,0,0
2.807,-0.0036000,-0.0036000,9.7945000,0.0305000,0.0000000,0.0076000,-29.8270000,19.7170000,16.7580000,101279.620000,0,0,0
2.817,-0.0048000,-0.0048000,9.7945000,0.0305000,0.0000000,0.0000000,-29.3930000,19.2000000,16.7860000,101285.950000,0,0,0
2.827,-0.0036000,-0.0048000,9.7957000,0.0229000,0.0000000,0.0076000,-29.3420000,19.4330000,16.9410000,101285.950000,0,0,0
2.837,-0.0012000,-0.0048000,9.7969000,0.0153000,0.0000000,0.0076000,-29.2810000,19.5500000,16.1100000,101284.260000,0,0,0
2.847,0.0012000,-0.0024000,9.7969000,0.0153000,0.0076000,0.0076000,-29.4160000,19.8050000,15.7890000,101284.260000,0,0,0
2.857,0.0036000,0.0000000,9.7945000,0.0229000,0.0153000,0.0076000,-29.3860000,19.6710000,16.3560000,101286.040000,0,0,0
2.867,0.0060000,0.0024000,9.7933000,0.0229000,0.0153000,0.0153000,-29.1980000,19.6790000,16.6800000,101286.040000,0,0,0
2.877,0.0072000,0.0036000,9.7945000,0.0229000,0.0153000,0.0229000,-29.4460000,19.4790000,15.9160000,101282.080000,0,0,0
2.887,0.0048000,0.0048000,9.7945000,0.0229000,0.0153000,0.0229000,-29.3950000,19.5180000,16.5610000,101282.080000,0,0,0
2.897,0.0012000,0.0048000,9.7921000,0.0153000,0.0153000,0.0229000,-29.5500000,19.2030000,16.6770000,101283.840000,0,0,0
2.907,-0.0012000,0.0024000,9.7921000,0.0153000,0.0076000,0.0229000,-29.6340000,19.4780000,16.3160000,101283.840000,0,0,0
2.917,-0.0024000,0.0000000,9.7933000,0.0076000,0.0076000,0.0229000,-29.5110000,19.5810000,16.6970000,101279.480000,0,0,0
2.927,0.0000000,-0.0012000,9.7945000,0.0000000,0.0076000,0.0229000,-29.3270000,19.1240000,16.4030000,101279.480000,0,0,0
2.937,0.0036000,0.0000000,9.7933000,0.0000000,0.0076000,0.0153000,-29.3200000,19.2620000,16.7830000,101281.860000,0,0,0
2.947,0.0060000,0.0000000,9.7933000,-0.0076000,0.0076000,0.0153000,-29.4700000,19.3990000,16.9290000,101281.860000,0,0,0
2.957,0.0084000,0.0000000,9.7909000,0.0000000,0.0000000,0.0229000,-29.3360000,19.3750000,16.1630000,101285.950000,0,0,0
2.967,0.0072000,-0.0012000,9.7897000,0.0076000,0.0000000,0.0229000,-29.4670000,19.5220000,16.2790000,101285.950000,0,0,0
2.977,0.0036000,-0.0024000,9.7897000,0.0076000,-0.0076000,0.0153000,-29.0680000,19.3260000,16.4710000,101285.700000,0,0,0
2.987,0.0012000,-0.0024000,9.7933000,0.0153000,-0.0076000,0.0076000,-29.0230000,19.5450000,16.6170000,101285.700000,0,0,0
2.997,-0.0024000,-0.0024000,9.7957000,0.0153000,-0.0076000,0.0076000,-29.3620000,19.6650000,16.4480000,101279.570000,0,0,0
3.007,-0.0036000,-0.0012000,9.7945000,0.0153000,-0.0076000,0.0000000,-29.3850000,19.5920000,16.6580000,101279.570000,0,0,0
3.017,-0.0024000,0.0000000,9.7945000,0.0153000,-0.0076000,-0.0076000,-29.4110000,19.3710000,16.0630000,101282.170000,0,0,0
3.027,0.0000000,0.0000000,9.7969000,0.0076000,-0.0076000,0.0000000,-29.4650000,19.7060000,16.2700000,101282.170000,0,0,0
3.037,0.0024000,-0.0012000,9.7969000,0.0000000,-0.0076000,0.0000000,-29.3670000,19.5590000,16.6200000,101279.910000,0,0,0
3.047,0.0048000,-0.0012000,9.7957000,0.0000000,-0.0076000,0.0076000,-29.3670000,19.4450000,16.6170000,101279.910000,0,0,0
3.057,0.0048000,0.0000000,9.7945000,0.0076000,0.0000000,0.0000000,-29.4800000,19.6690000,15.9600000,101285.610000,0,0,0
3.067,0.0048000,0.0000000,9.7957000,0.0076000,0.0000000,0.0000000,-29.4670000,19.6820000,16.1480000,101285.610000,0,0,0
3.077,0.0036000,0.0012000,9.7981000,0.0153000,0.0076000,0.0000000,-29.5280000,19.8010000,16.4700000,101285.980000,0,0,0
3.087,0.0024000,0.0012000,9.7981000,0.0153000,0.0076000,0.0000000,-29.7380000,19.7120000,16.1980000,101285.980000,0,0,0
3.097,0.0012000,0.0000000,9.7969000,0.0153000,0.0076000,0.0000000,-29.4950000,19.1270000,16.4530000,101286.380000,0,0,0
3.107,-0.0012000,-0.0012000,9.7993000,0.0153000,0.0000000,0.0000000,-29.2450000,19.5080000,15.7410000,101286.380000,0,0,0
3.117,-0.0024000,-0.0012000,9.8017000,0.0076000,0.0000000,0.0153000,-29.3880000,19.4430000,16.4020000,101285.750000,0,0,0
3.127,-0.0012000,0.0000000,9.8017000,0.0000000,0.0000000,0.0153000,-29.5440000,19.4840000,16.3760000,101285.750000,0,0,0
3.137,0.0000000,0.0000000,9.8005000,0.0000000,-0.0076000,0.0153000,-29.4740000,19.6100000,16.1290000,101283.720000,0,0,0
3.147,0.0012000,0.0000000,9.7993000,0.0000000,-0.0076000,0.0153000,-29.2360000,19.5760000,16.1290000,101283.720000,0,0,0
3.157,0.0024000,-0.0012000,9.7993000,0.0000000,0.0000000,0.0153000,-29.6250000,19.3940000,16.3130000,101286.040000,0,0,0
3.167,0.0012000,-0.0012000,9.7981000,0.0000000,0.0000000,0.0153000,-29.5280000,19.6570000,16.1650000,101286.040000,0,0,0
3.177,0.0012000,-0.0012000,9.7969000,0.0000000,0.0000000,0.0153000,-29.4620000,19.1690000,15.9040000,101281.230000,0,0,0
3.187,-0.0012000,-0.0012000,9.7957000,0.0000000,0.0000000,0.0076000,-29.3990000,19.5850000,15.9400000,101281.230000,0,0,0
3.197,0.0000000,0.0000000,9.7957000,0.0000000,0.0000000,0.0153000,-29.5390000,19.6470000,15.9690000,101285.980000,0,0,0
3.207,0.0000000,0.0000000,9.7957000,-0.0076000,0.0076000,0.0153000,-29.2310000,19.4740000,16.2950000,101285.980000,0,0,0
3.217,0.0012000,0.0012000,9.7945000,0.0000000,0.0153000,0.0153000,-29.2100000,19.6880000,16.7090000,101279.290000,0,0,0
3.227,0.0012000,0.0012000,9.7945000,0.0000000,0.0229000,0.0153000,-29.4250000,19.6230000,16.8300000,101279.290000,0,0,0
3.237,0.0000000,0.0012000,9.7945000,0.0076000,0.0229000,0.0153000,-29.0990000,19.4750000,16.1510000,101285.920000,0,0,0
3.247,0.0000000,0.0012000,9.7957000,0.0076000,0.0153000,0.0076000,-29.2010000,19.3870000,16.7960000,101285.920000,0,0,0
3.257,0.0000000,0.0012000,9.7957000,0.0000000,0.0153000,0.0076000,-29.4350000,19.5860000,16.9930000,101283.940000,0,0,0
3.267,-0.0012000,0.0012000,9.7945000,0.0000000,0.0076000,0.0000000,-29.5740000,19.4080000,17.0520000,101283.940000,0,0,0
3.277,-0.0012000,0.0012000,9.7969000,0.0000000,0.0076000,0.0000000,-29.4780000,19.5340000,16.6820000,101285.360000,0,0,0
3.287,0.0012000,0.0012000,9.7981000,0.0076000,0.0076000,0.0076000,-29.2030000,19.4300000,16.6840000,101285.360000,0,0,0
3.297,0.0000000,0.0012000,9.7969000,0.0153000,0.0076000,0.0076000,-29.6090000,19.3380000,16.0590000,101281.600000,0,0,0
3.307,0.0012000,0.0012000,9.7969000,0.0153000,0.0076000,0.0076000,-29.6180000,19.7030000,16.1020000,101281.600000,0,0,0
3.317,0.0024000,-0.0012000,9.7969000,0.0153000,0.0076000,0.0000000,-29.4840000,19.4270000,16.6280000,101283.810000,0,0,0
3.327,0.0024000,-0.0024000,9.7957000,0.0153000,0.0076000,0.0000000,-29.2300000,19.4870000,16.5270000,101283.810000,0,0,0
3.337,0.0024000,-0.0024000,9.7933000,0.0076000,0.0000000,0.0076000,-29.3100000,19.4000000,16.3570000,101285.980000,0,0,0
3.347,0.0024000,-0.0012000,9.7945000,0.0153000,-0.0076000,0.0076000,-29.2790000,19.7630000,16.4400000,101285.980000,0,0,0
3.357,0.0036000,0.0000000,9.7969000,0.0153000,-0.0076000,0.0153000,-29.3450000,19.4590000,16.0060000,101287.410000,0,0,0
3.367,0.0036000,0.0012000,9.7981000,0.0153000,-0.0076000,0.0229000,-29.3790000,19.5040000,15.9330000,101287.410000,0,0,0
3.377,0.0036000,0.0024000,9.7969000,0.0153000,-0.0076000,0.0229000,-29.2460000,19.4510000,16.1480000,101283.840000,0,0,0
3.387,0.0012000,0.0024000,9.7969000,0.0153000,-0.0076000,0.0229000,-29.2640000,19.3540000,15.9080000,101283.840000,0,0,0
3.397,0.0000000,0.0012000,9.7981000,0.0229000,0.0000000,0.0153000,-29.3920000,19.3820000,16.6160000,101281.730000,0,0,0
3.407,-0.0012000,0.0012000,9.7981000,0.0229000,0.0076000,0.0153000,-29.3500000,19.5480000,15.8350000,101281.730000,0,0,0
3.417,-0.0012000,0.0000000,9.7969000,0.0305000,0.0076000,0.0076000,-29.2800000,19.2440000,16.3730000,101285.950000,0,0,0
3.427,0.0000000,0.0000000,9.7957000,0.0381000,0.0076000,0.0076000,-29.6460000,19.3150000,16.4290000,101285.950000,0,0,0
3.437,0.0012000,0.0000000,9.7945000,0.0381000,0.0076000,0.0076000,-29.3560000,19.1250000,16.3280000,101283.460000,0,0,0
3.447,0.0024000,0.0012000,9.7945000,0.0381000,0.0076000,0.0076000,-29.4380000,19.4950000,16.1200000,101283.460000,0,0,0
3.457,0.0024000,0.0024000,9.7957000,0.0381000,0.0076000,0.0076000,-29.4310000,19.2780000,16.3710000,101283.650000,0,0,0
3.467,0.0000000,0.0012000,9.7969000,0.0305000,0.0076000,0.0076000,-29.2270000,19.4390000,16.0780000,101283.650000,0,0,0
3.477,-0.0036000,0.0012000,9.7969000,0.0305000,0.0076000,0.0153000,-29.5290000,19.3090000,16.3830000,101283.590000,0,0,0
3.487,-0.0060000,0.0000000,9.7957000,0.0305000,0.0076000,0.0153000,-29.2390000,19.4800000,16.4540000,101283.590000,0,0,0
3.497,-0.0072000,-0.0012000,9.7957000,0.0229000,0.0000000,0.0076000,-29.1620000,19.1330000,16.6620000,101283.980000,0,0,0
3.507,-0.0072000,-0.0012000,9.7945000,0.0229000,0.0076000,0.0076000,-29.6090000,19.2160000,15.9240000,101283.980000,0,0,0
3.517,-0.0060000,0.0000000,9.7933000,0.0305000,0.0076000,0.0076000,-29.2360000,19.1360000,16.4050000,101285.890000,0,0,0
3.527,-0.0024000,0.0012000,9.7945000,0.0381000,0.0000000,0.0076000,-29.5180000,19.4800000,15.9680000,101285.890000,0,0,0
3.537,0.0012000,0.0012000,9.7981000,0.0305000,0.0000000,0.0076000,-29.4200000,19.4760000,16.7570000,101285.920000,0,0,0
3.547,0.0036000,0.0012000,9.7993000,0.0229000,0.0000000,0.0076000,-29.5210000,19.4900000,16.6820000,101285.920000,0,0,0
3.557,0.0048000,0.0000000,9.7981000,0.0229000,0.0076000,0.0153000,-29.1050000,19.6420000,17.0790000,101279.590000,0,0,0
3.567,0.0036000,0.0000000,9.7969000,0.0229000,0.0076000,0.0153000,-29.5050000,19.4270000,16.6720000,101279.590000,0,0,0
3.577,0.0024000,0.0000000,9.7993000,0.0153000,0.0153000,0.0153000,-29.4590000,19.4870000,16.6050000,101286.400000,0,0,0
3.587,0.0000000,0.0012000,9.8017000,0.0153000,0.0076000,0.0153000,-29.3610000,19.5130000,16.2610000,101286.400000,0,0,0
3.597,0.0000000,0.0012000,9.7993000,0.0153000,0.0076000,0.0153000,-29.3070000,19.4320000,16.6970000,101285.570000,0,0,0
3.607,0.0000000,0.0000000,9.7981000,0.0229000,0.0076000,0.0076000,-29.4800000,19.3090000,16.5520000,101285.570000,0,0,0
3.617,0.0024000,-0.0012000,9.7993000,0.0229000,0.0076000,0.0000000,-29.8270000,19.7910000,15.9480000,101283.790000,0,0,0
3.627,0.0036000,-0.0024000,9.8017000,0.0229000,0.0076000,0.0000000,-29.5820000,19.4440000,16.0030000,101283.790000,0,0,0
3.637,0.0036000,-0.0024000,9.8017000,0.0153000,0.0076000,0.0000000,-29.7690000,19.3300000,16.1690000,101279.420000,0,0,0
3.647,0.0036000,-0.0012000,9.8017000,0.0076000,0.0153000,0.0076000,-29.7910000,19.4790000,15.9730000,101279.420000,0,0,0
3.657,0.0036000,0.0000000,9.8005000,0.0000000,0.0153000,0.0076000,-29.5990000,19.6510000,16.7070000,101285.830000,0,0,0
3.667,0.0036000,0.0012000,9.7993000,0.0076000,0.0153000,0.0000000,-29.7500000,19.1020000,16.7350000,101285.830000,0,0,0
3.677,0.0024000,0.0012000,9.7969000,0.0076000,0.0153000,0.0000000,-29.5070000,19.4330000,16.5620000,101285.920000,0,0,0
3.687,0.0012000,0.0024000,9.7945000,0.0076000,0.0153000,0.0000000,-29.7530000,19.4020000,16.7820000,101285.920000,0,0,0
3.697,0.0000000,0.0024000,9.7969000,0.0153000,0.0076000,0.0000000,-29.2390000,19.3630000,17.1670000,101285.270000,0,0,0
3.707,-0.0012000,0.0012000,9.7981000,0.0076000,0.0153000,-0.0076000,-29.4460000,19.7480000,15.7870000,101285.270000,0,0,0
3.717,0.0000000,0.0012000,9.7981000,0.0076000,0.0076000,-0.0076000,-29.4210000,19.5340000,16.6160000,101283.810000,0,0,0
3.727,0.0012000,0.0012000,9.7981000,0.0076000,0.0076000,-0.0076000,-29.3420000,19.4340000,16.8210000,101283.810000,0,0,0
3.737,0.0036000,0.0024000,9.8005000,0.0153000,0.0076000,-0.0076000,-29.2770000,19.1450000,16.3150000,101279.770000,0,0,0
3.747,0.0060000,0.0036000,9.8005000,0.0076000,0.0076000,0.0000000,-29.6570000,19.2460000,16.7180000,101279.770000,0,0,0
3.757,0.0060000,0.0024000,9.8005000,0.0076000,0.0076000,0.0000000,-29.4890000,19.4390000,16.9680000,101285.700000,0,0,0
3.767,0.0048000,0.0012000,9.8005000,0.0153000,0.0076000,0.0000000,-29.4630000,19.1770000,16.9510000,101285.700000,0,0,0
3.777,0.0024000,0.0000000,9.8017000,0.0153000,0.0076000,0.0000000,-29.5800000,19.3820000,16.6310000,101283.740000,0,0,0
3.787,0.0024000,-0.0036000,9.8017000,0.0153000,0.0076000,0.0000000,-29.2760000,19.8090000,16.6640000,101283.740000,0,0,0
3.797,0.0024000,-0.0060000,9.8017000,0.0153000,0.0076000,0.0000000,-29.7000000,19.5480000,16.7110000,101279.670000,0,0,0
3.807,0.0024000,-0.0048000,9.8017000,0.0153000,0.0076000,0.0076000,-29.6180000,19.7840000,16.3550000,101279.670000,0,0,0
3.817,0.0036000,-0.0048000,9.8017000,0.0076000,0.0076000,0.0076000,-29.5470000,19.3490000,16.3030000,101285.550000,0,0,0
3.827,0.0036000,-0.0036000,9.8017000,0.0000000,0.0076000,0.0153000,-29.3610000,19.5870000,16.5750000,101285.550000,0,0,0
3.837,0.0036000,-0.0024000,9.8029000,-0.0076000,0.0076000,0.0153000,-29.8130000,19.3860000,16.7320000,101285.830000,0,0,0
3.847,0.0036000,-0.0012000,9.8029000,-0.0076000,0.0076000,0.0153000,-29.5970000,19.5950000,16.1000000,101285.830000,0,0,0
3.857,0.0024000,0.0000000,9.8029000,0.0000000,0.0153000,0.0153000,-29.3830000,19.8110000,16.5590000,101279.770000,0,0,0
3.867,0.0000000,0.0012000,9.8029000,0.0076000,0.0153000,0.0153000,-29.5660000,19.3690000,16.1880000,101279.770000,0,0,0
3.877,0.0000000,0.0024000,9.8017000,0.0076000,0.0153000,0.0153000,-29.4840000,19.6580000,16.6900000,101285.980000,0,0,0
3.887,-0.0012000,0.0012000,9.8017000,0.0076000,0.0153000,0.0153000,-29.4940000,19.4330000,16.5430000,101285.980000,0,0,0
3.897,-0.0012000,-0.0024000,9.8017000,0.0153000,0.0153000,0.0000000,-29.5680000,19.3580000,16.1630000,101285.770000,0,0,0
3.907,-0.0012000,-0.0036000,9.8029000,0.0153000,0.0076000,0.0000000,-29.4190000,19.4880000,16.2960000,101285.770000,0,0,0
3.917,-0.0012000,-0.0036000,9.8041000,0.0076000,0.0076000,0.0076000,-29.4840000,19.5210000,16.4140000,101279.610000,0,0,0
3.927,0.0012000,-0.0036000,9.8053000,0.0000000,0.0076000,0.0000000,-29.6330000,19.6160000,16.2700000,101279.610000,0,0,0
3.937,0.0036000,-0.0036000,9.8053000,0.0000000,0.0076000,0.0000000,-29.5830000,19.5880000,16.8850000,101285.700000,0,0,0
3.947,0.0060000,-0.0036000,9.8041000,-0.0076000,0.0076000,0.0076000,-29.5330000,19.7760000,16.9540000,101285.700000,0,0,0
3.957,0.0060000,-0.0036000,9.8005000,0.0000000,0.0076000,0.0153000,-29.6410000,19.3870000,16.6810000,101283.980000,0,0,0
3.967,0.0036000,-0.0024000,9.7993000,0.0000000,0.0000000,0.0076000,-29.7370000,19.5360000,16.8500000,101283.980000,0,0,0
3.977,0.0024000,-0.0024000,9.8005000,0.0076000,0.0000000,0.0076000,-29.5930000,19.6780000,16.6500000,101283.520000,0,0,0
3.987,0.0012000,-0.0012000,9.8017000,0.0229000,0.0076000,0.0076000,-29.4720000,19.4350000,15.9950000,101283.520000,0,0,0
3.997,0.0024000,0.0000000,9.8017000,0.0305000,0.0076000,0.0076000,-29.4120000,19.5570000,15.7170000,101285.920000,0,0,0
4.007,0.0036000,0.0012000,9.8029000,0.0229000,0.0076000,0.0076000,-29.4950000,19.4540000,16.2290000,101285.920000,0,0,0
4.017,0.0036000,0.0024000,9.8041000,0.0229000,0.0076000,0.0076000,-29.4110000,19.4630000,16.0750000,101281.960000,0,0,0
4.027,0.0024000,0.0012000,9.8041000,0.0153000,0.0076000,0.0076000,-29.4780000,19.8230000,15.9960000,101281.960000,0,0,0
4.037,0.0012000,-0.0012000,9.8017000,0.0153000,0.0076000,0.0076000,-29.4460000,19.8920000,15.2080000,101285.620000,0,0,0
4.047,0.0012000,-0.0024000,9.7993000,0.0153000,0.0076000,0.0000000,-29.6140000,19.5710000,15.5860000,101285.620000,0,0,0
4.057,0.0024000,-0.0012000,9.7993000,0.0153000,0.0076000,0.0000000,-29.3780000,19.5340000,15.9150000,101285.340000,0,0,0
4.067,0.0024000,0.0000000,9.8005000,0.0153000,0.0076000,0.0076000,-29.2060000,19.7640000,16.2030000,101285.340000,0,0,0
4.077,0.0012000,0.0000000,9.8005000,0.0076000,0.0076000,0.0076000,-29.5310000,19.4520000,16.5290000,101281.050000,0,0,0
4.087,0.0012000,-0.0012000,9.8005000,0.0153000,0.0076000,0.0153000,-29.1670000,19.5220000,15.8900000,101281.050000,0,0,0
4.097,-0.0012000,-0.0024000,9.8017000,0.0229000,0.0000000,0.0076000,-29.5410000,19.6370000,15.8000000,101283.870000,0,0,0
4.107,-0.0024000,-0.0024000,9.8041000,0.0229000,0.0076000,0.0076000,-29.2220000,19.4530000,15.5780000,101283.870000,0,0,0
4.117,-0.0024000,-0.0024000,9.8041000,0.0153000,0.0153000,0.0000000,-29.5940000,19.3530000,15.7140000,101280.080000,0,0,0
4.127,-0.0012000,-0.0012000,9.8029000,0.0076000,0.0153000,0.0000000,-29.4120000,19.7530000,15.9990000,101280.080000,0,0,0
4.137,0.0012000,0.0024000,9.8005000,0.0076000,0.0153000,-0.0076000,-29.7350000,19.6660000,16.2610000,101282.350000,0,0,0
4.147,0.0036000,0.0048000,9.7993000,0.0153000,0.0153000,0.0000000,-29.5000000,19.7730000,16.2320000,101282.350000,0,0,0
4.157,0.0048000,0.0048000,9.7993000,0.0153000,0.0153000,0.0076000,-29.3350000,19.7220000,16.5870000,101283.490000,0,0,0
4.167,0.0048000,0.0048000,9.7993000,0.0153000,0.0153000,0.0076000,-29.7280000,19.7950000,16.1800000,101283.490000,0,0,0
4.177,0.0036000,0.0036000,9.8005000,0.0076000,0.0153000,0.0076000,-29.5200000,19.7610000,15.6140000,101286.040000,0,0,0
4.187,0.0012000,0.0024000,9.8029000,0.0076000,0.0153000,0.0153000,-29.5550000,19.9030000,15.9920000,101286.040000,0,0,0
4.197,0.0000000,0.0012000,9.8041000,0.0076000,0.0153000,0.0153000,-29.5510000,19.7420000,15.5480000,101279.420000,0,0,0
4.207,0.0000000,0.0000000,9.8041000,0.0076000,0.0076000,0.0153000,-29.4130000,19.8520000,15.1600000,101279.420000,0,0,0
4.217,0.0012000,-0.0012000,9.8041000,0.0000000,0.0076000,0.0229000,-29.7250000,19.5600000,15.8430000,101282.410000,0,0,0
4.227,0.0024000,-0.0024000,9.8041000,0.0000000,0.0076000,0.0229000,-29.2560000,19.6280000,15.9320000,101282.410000,0,0,0
4.237,0.0024000,-0.0024000,9.8029000,0.0000000,0.0076000,0.0229000,-29.4710000,20.0160000,15.7160000,101285.220000,0,0,0
4.247,0.0036000,0.0000000,9.8029000,0.0076000,0.0000000,0.0153000,-29.7490000,19.5780000,16.1190000,101285.220000,0,0,0
4.257,0.0036000,0.0012000,9.8029000,0.0076000,0.0000000,0.0153000,-29.5430000,19.4910000,15.8590000,101281.960000,0,0,0
4.267,0.0024000,0.0024000,9.8017000,0.0000000,0.0000000,0.0076000,-29.4050000,19.3910000,15.9920000,101281.960000,0,0,0
4.277,0.0024000,0.0036000,9.8005000,0.0000000,0.0000000,0.0076000,-29.1680000,19.8680000,15.6840000,101286.090000,0,0,0
4.287,0.0024000,0.0036000,9.8005000,0.0000000,0.0000000,0.0076000,-29.1580000,19.6170000,15.2720000,101286.090000,0,0,0
4.297,0.0024000,0.0036000,9.8005000,0.0076000,0.0000000,0.0000000,-29.5190000,19.6510000,15.7520000,101283.980000,0,0,0
4.307,0.0024000,0.0024000,9.7993000,0.0076000,-0.0076000,-0.0076000,-29.7080000,19.3400000,15.4980000,101283.980000,0,0,0
4.317,0.0036000,0.0024000,9.7981000,0.0076000,-0.0076000,0.0000000,-29.3090000,19.5670000,15.4430000,101283.640000,0,0,0
4.327,0.0036000,0.0012000,9.7969000,0.0076000,0.0000000,0.0000000,-29.6140000,19.2690000,15.2540000,101283.640000,0,0,0
4.337,0.0024000,-0.0012000,9.7957000,0.0076000,0.0000000,0.0076000,-29.4280000,19.5480000,15.9270000,101279.540000,0,0,0
4.347,0.0000000,-0.0024000,9.7969000,0.0076000,0.0000000,0.0076000,-29.1950000,19.5950000,15.9950000,101279.540000,0,0,0
4.357,-0.0012000,-0.0024000,9.7993000,0.0076000,0.0000000,0.0000000,-29.5360000,19.8210000,16.2950000,101285.980000,0,0,0
4.367,-0.0024000,-0.0012000,9.8017000,0.0153000,0.0000000,0.0000000,-29.7110000,19.5290000,15.7920000,101285.980000,0,0,0
4.377,-0.0036000,-0.0012000,9.8029000,0.0229000,0.0000000,0.0000000,-29.3850000,19.1170000,16.3720000,101283.840000,0,0,0
4.387,-0.0048000,-0.0012000,9.8041000,0.0229000,0.0000000,0.0000000,-29.5240000,19.4010000,16.4720000,101283.840000,0,0,0
4.397,-0.0024000,-0.0012000,9.8053000,0.0229000,0.0000000,0.0000000,-29.3200000,19.5350000,15.8260000,101281.340000,0,0,0
4.407,0.0024000,0.0012000,9.8065000,0.0305000,0.0076000,0.0000000,-29.0920000,19.6420000,16.6990000,101281.340000,0,0,0
4.417,0.0084000,0.0024000,9.8053000,0.0381000,0.0153000,0.0000000,-29.2650000,19.6750000,16.1950000,101285.700000,0,0,0
4.427,0.0120000,0.0036000,9.8029000,0.0381000,0.0153000,0.0076000,-29.1280000,19.7330000,16.2810000,101285.700000,0,0,0
4.437,0.0132000,0.0024000,9.8017000,0.0381000,0.0229000,0.0076000,-29.1310000,19.9700000,16.6480000,101286.120000,0,0,0
4.447,0.0060000,0.0000000,9.8017000,0.0381000,0.0229000,0.0076000,-29.2560000,19.7070000,16.2890000,101286.120000,0,0,0
4.457,0.0000000,0.0000000,9.8029000,0.0305000,0.0229000,0.0076000,-29.2590000,19.6610000,16.5030000,101279.770000,0,0,0
4.467,-0.0036000,0.0000000,9.8029000,0.0229000,0.0229000,0.0076000,-29.3790000,19.4980000,16.1170000,101279.770000,0,0,0
4.477,-0.0060000,0.0024000,9.8017000,0.0076000,0.0153000,0.0000000,-29.1560000,19.6070000,16.3510000,101285.980000,0,0,0
4.487,-0.0048000,0.0036000,9.8017000,0.0000000,0.0076000,0.0000000,-29.2040000,19.7800000,16.3370000,101285.980000,0,0,0
4.497,-0.0012000,0.0048000,9.8017000,-0.0076000,0.0076000,0.0076000,-29.3860000,19.6190000,17.1190000,101286.040000,0,0,0
4.507,0.0024000,0.0036000,9.8005000,-0.0076000,0.0153000,0.0153000,-29.1580000,19.7330000,16.5600000,101286.040000,0,0,0
4.517,0.0024000,0.0024000,9.7993000,-0.0076000,0.0153000,0.0153000,-28.8540000,19.6780000,16.7610000,101285.600000,0,0,0
4.527,0.0024000,0.0024000,9.8005000,0.0000000,0.0153000,0.0229000,-29.0990000,19.7560000,16.8890000,101285.600000,0,0,0
4.537,0.0000000,0.0024000,9.8005000,0.0000000,0.0076000,0.0153000,-28.9020000,19.4080000,16.2550000,101285.620000,0,0,0
4.547,-0.0024000,0.0012000,9.8005000,-0.0076000,0.0076000,0.0153000,-28.8630000,19.6560000,16.1210000,101285.620000,0,0,0
4.557,-0.0036000,0.0000000,9.7993000,0.0000000,0.0076000,0.0153000,-29.4640000,19.3750000,16.1470000,101283.840000,0,0,0
4.567,-0.0036000,-0.0012000,9.7981000,0.0000000,0.0000000,0.0153000,-29.3350000,19.4240000,16.4090000,101283.840000,0,0,0
4.577,-0.0024000,-0.0024000,9.7981000,0.0000000,0.0076000,0.0076000,-29.4010000,19.8930000,16.6980000,101285.980000,0,0,0
4.587,0.0000000,-0.0036000,9.7981000,0.0076000,0.0076000,0.0153000,-29.4080000,19.7490000,16.2300000,101285.980000,0,0,0
4.597,0.0012000,-0.0024000,9.7993000,0.0076000,0.0153000,0.0153000,-29.5880000,19.5630000,16.6050000,101286.030000,0,0,0
4.607,0.0036000,-0.0012000,9.7993000,0.0076000,0.0076000,0.0153000,-29.4710000,19.5630000,15.9610000,101286.030000,0,0,0
4.617,0.0048000,0.0000000,9.7993000,0.0076000,0.0076000,0.0153000,-29.4360000,19.5200000,16.6000000,101286.040000,0,0,0
4.627,0.0048000,0.0012000,9.7993000,0.0000000,0.0076000,0.0076000,-29.4380000,19.6450000,16.9250000,101286.040000,0,0,0
4.637,0.0024000,0.0012000,9.8005000,0.0076000,0.0076000,0.0076000,-29.3180000,20.0850000,16.3730000,101279.450000,0,0,0
4.647,0.0000000,0.0012000,9.8005000,0.0153000,0.0076000,0.0076000,-29.1470000,19.3410000,16.3100000,101279.450000,0,0,0
4.657,0.0012000,0.0012000,9.8005000,0.0153000,0.0076000,0.0076000,-29.2600000,19.7820000,16.6720000,101286.380000,0,0,0
4.667,0.0024000,0.0012000,9.8005000,0.0153000,0.0076000,0.0076000,-29.4770000,19.4480000,16.4370000,101286.380000,0,0,0
4.677,0.0048000,0.0012000,9.8017000,0.0153000,0.0076000,0.0076000,-29.3330000,19.6800000,16.9090000,101285.830000,0,0,0
4.687,0.0060000,0.0000000,9.8017000,0.0153000,0.0076000,0.0076000,-29.2330000,19.4350000,16.4490000,101285.830000,0,0,0
4.697,0.0048000,-0.0012000,9.8017000,0.0153000,0.0076000,0.0076000,-29.2950000,19.4720000,16.0740000,101286.220000,0,0,0
4.707,0.0024000,-0.0024000,9.8005000,0.0153000,0.0153000,0.0076000,-29.3380000,19.5100000,16.2440000,101286.220000,0,0,0
4.717,0.0000000,-0.0036000,9.8005000,0.0153000,0.0076000,0.0000000,-29.1670000,19.8110000,15.8540000,101286.040000,0,0,0
4.727,-0.0012000,-0.0036000,9.8005000,0.0153000,0.0000000,0.0076000,-29.4190000,19.4280000,16.1330000,101286.040000,0,0,0
4.737,-0.0012000,-0.0024000,9.7993000,0.0153000,0.0000000,0.0076000,-29.6010000,19.7040000,16.2250000,101284.110000,0,0,0
4.747,0.0012000,-0.0012000,9.7993000,0.0076000,0.0000000,0.0153000,-29.2670000,19.9750000,16.5020000,101284.110000,0,0,0
4.757,0.0036000,0.0000000,9.7993000,0.0076000,0.0000000,0.0153000,-29.3830000,19.6210000,16.7910000,101287.970000,0,0,0
4.767,0.0036000,0.0012000,9.7993000,0.0076000,0.0076000,0.0229000,-29.0420000,19.3380000,16.0650000,101287.970000,0,0,0
4.777,0.0024000,0.0012000,9.8005000,0.0153000,0.0000000,0.0153000,-29.2460000,19.4740000,16.7020000,101279.880000,0,0,0
4.787,0.0000000,0.0000000,9.7993000,0.0153000,0.0000000,0.0153000,-29.2510000,19.4960000,15.8200000,101279.880000,0,0,0
4.797,-0.0024000,-0.0012000,9.8005000,0.0153000,0.0000000,0.0153000,-29.3560000,19.7420000,16.4290000,101286.040000,0,0,0
4.807,-0.0048000,-0.0024000,9.8017000,0.0076000,0.0000000,0.0076000,-29.3760000,19.3630000,16.7570000,101286.040000,0,0,0
4.817,-0.0060000,-0.0024000,9.8017000,0.0076000,-0.0076000,0.0076000,-29.1870000,19.6030000,15.9780000,101283.840000,0,0,0
4.827,-0.0072000,-0.0036000,9.8005000,0.0153000,0.0000000,0.0000000,-29.2620000,19.7240000,16.1710000,101283.840000,0,0,0
4.837,-0.0048000,-0.0024000,9.7993000,0.0153000,0.0000000,0.0000000,-29.5310000,19.6530000,16.1650000,101281.080000,0,0,0
4.847,-0.0012000,-0.0024000,9.8005000,0.0153000,0.0000000,0.0000000,-29.5030000,19.4380000,17.0010000,101281.080000,0,0,0
4.857,0.0012000,0.0000000,9.8017000,0.0153000,0.0076000,0.0000000,-29.3830000,19.4710000,16.7990000,101285.830000,0,0,0
4.867,0.0012000,0.0012000,9.7993000,0.0076000,0.0076000,0.0076000,-29.5540000,19.4360000,16.6300000,101285.830000,0,0,0
4.877,0.0024000,0.0036000,9.7969000,0.0076000,0.0076000,0.0076000,-29.3870000,19.2790000,17.0380000,101283.490000,0,0,0
4.887,0.0024000,0.0036000,9.7969000,0.0076000,0.0076000,0.0076000,-29.4440000,19.3660000,16.6980000,101283.490000,0,0,0
4.897,0.0024000,0.0024000,9.7981000,0.0076000,0.0000000,0.0076000,-29.3050000,19.3680000,16.2690000,101285.980000,0,0,0
4.907,0.0012000,0.0012000,9.7981000,0.0076000,0.0000000,0.0153000,-29.4750000,19.3700000,16.9630000,101285.980000,0,0,0
4.917,0.0000000,0.0000000,9.7969000,0.0153000,0.0000000,0.0076000,-29.6080000,19.6920000,16.7430000,101283.880000,0,0,0
4.927,0.0000000,0.0000000,9.7981000,0.0153000,0.0076000,0.0076000,-29.4920000,19.3390000,16.5720000,101283.880000,0,0,0
4.937,0.0024000,0.0000000,9.7993000,0.0153000,0.0076000,0.0076000,-29.5150000,19.4540000,16.8210000,101285.790000,0,0,0
4.947,0.0036000,0.0012000,9.7993000,0.0076000,0.0153000,0.0076000,-29.6730000,19.2220000,16.4430000,101285.790000,0,0,0
4.957,0.0060000,0.0024000,9.7981000,0.0076000,0.0153000,0.0076000,-29.5050000,19.3190000,16.8590000,101285.440000,0,0,0
4.967,0.0060000,0.0024000,9.7981000,0.0076000,0.0153000,0.0153000,-29.9710000,19.6810000,15.6400000,101285.440000,0,0,0
4.977,0.0048000,0.0024000,9.8005000,0.0000000,0.0153000,0.0153000,-29.6300000,19.5320000,16.6520000,101280.230000,0,0,0
4.987,0.0024000,0.0012000,9.8017000,0.0076000,0.0153000,0.0229000,-29.3980000,19.5700000,17.0720000,101280.230000,0,0,0
4.997,-0.0012000,-0.0012000,9.8005000,0.0076000,0.0153000,0.0229000,-29.4610000,19.4580000,16.4650000,101283.810000,0,0,0
5.007,-0.0024000,-0.0036000,9.7993000,0.0076000,0.0076000,0.0229000,-29.4250000,19.1630000,16.5090000,101283.810000,0,0,0
5.017,-0.0024000,-0.0024000,9.7993000,0.0076000,0.0076000,0.0153000,-29.4700000,19.4550000,17.3350000,101281.340000,0,0,0
5.027,0.0000000,-0.0024000,9.7993000,0.0076000,0.0076000,0.0153000,-29.5300000,18.8910000,16.7120000,101281.340000,0,0,0
5.037,0.0024000,-0.0012000,9.7993000,0.0076000,0.0076000,0.0153000,-29.2760000,18.8000000,16.8890000,101285.520000,0,0,0
5.047,0.0036000,0.0000000,9.7981000,0.0076000,0.0153000,0.0076000,-29.6160000,19.1940000,16.5880000,101285.520000,0,0,0
5.057,0.0036000,0.0012000,9.7993000,0.0076000,0.0153000,0.0076000,-29.4800000,19.2950000,16.5310000,101287.380000,0,0,0
5.067,0.0024000,0.0000000,9.8017000,0.0076000,0.0076000,0.0076000,-29.4530000,19.1990000,16.1520000,101287.380000,0,0,0
5.077,0.0012000,0.0000000,9.8029000,0.0076000,0.0076000,0.0076000,-29.3760000,19.4830000,17.5820000,101285.830000,0,0,0
5.087,0.0000000,0.0012000,9.8017000,0.0000000,0.0153000,0.0076000,-29.5710000,19.1510000,16.8320000,101285.830000,0,0,0
5.097,0.0000000,0.0036000,9.8029000,0.0000000,0.0076000,0.0076000,-29.5690000,19.1040000,17.1390000,101283.720000,0,0,0
5.107,0.0012000,0.0036000,9.8005000,0.0076000,0.0076000,0.0076000,-29.5670000,19.4750000,16.6360000,101283.720000,0,0,0
5.117,0.0024000,0.0036000,9.7981000,0.0153000,0.0076000,0.0076000,-29.4670000,19.3220000,17.1780000,101286.040000,0,0,0
5.127,0.0024000,0.0036000,9.7993000,0.0153000,0.0000000,0.0000000,-29.1900000,19.2240000,16.4680000,101286.040000,0,0,0
5.137,0.0012000,0.0024000,9.8017000,0.0153000,0.0000000,0.0076000,-29.7920000,19.2970000,15.6350000,101281.430000,0,0,0
5.147,0.0000000,0.0012000,9.8017000,0.0076000,0.0000000,0.0076000,-29.1820000,19.2840000,16.5940000,101281.430000,0,0,0
5.157,0.0000000,0.0024000,9.7993000,0.0076000,0.0000000,0.0000000,-29.2000000,19.4960000,15.9960000,101285.480000,0,0,0
5.167,0.0012000,0.0024000,9.7969000,0.0000000,0.0000000,0.0000000,-29.4950000,18.9990000,15.9810000,101285.480000,0,0,0
5.177,0.0036000,0.0036000,9.7981000,0.0076000,0.0000000,-0.0076000,-29.3290000,19.2500000,16.3930000,101283.720000,0,0,0
5.187,0.0048000,0.0024000,9.7993000,0.0153000,0.0000000,-0.0076000,-29.0800000,19.2280000,15.9770000,101283.720000,0,0,0
5.197,0.0036000,0.0024000,9.7981000,0.0229000,0.0076000,-0.0076000,-29.6540000,19.4790000,16.5330000,101287.630000,0,0,0
5.207,0.0024000,0.0000000,9.7969000,0.0305000,0.0076000,0.0000000,-29.4150000,19.4030000,15.6860000,101287.630000,0,0,0
5.217,-0.0012000,0.0000000,9.7993000,0.0305000,0.0076000,0.0000000,-29.1920000,19.2160000,15.7430000,101285.980000,0,0,0
5.227,-0.0012000,-0.0012000,9.8005000,0.0229000,0.0076000,0.0076000,-29.3070000,19.3870000,15.8150000,101285.980000,0,0,0
5.237,0.0012000,-0.0012000,9.7993000,0.0229000,0.0000000,0.0076000,-29.4220000,19.2160000,15.4720000,101283.940000,0,0,0
5.247,0.0048000,-0.0012000,9.8005000,0.0153000,0.0000000,0.0076000,-29.4040000,19.3400000,15.8060000,101283.940000,0,0,0
5.257,0.0060000,0.0000000,9.8029000,0.0076000,0.0000000,0.0076000,-29.2520000,19.4860000,16.5490000,101283.870000,0,0,0
5.267,0.0072000,0.0012000,9.8041000,0.0076000,0.0000000,0.0076000,-29.3200000,19.3330000,16.3120000,101283.870000,0,0,0
5.277,0.0048000,0.0024000,9.8029000,0.0076000,0.0000000,0.0153000,-29.3840000,19.6060000,16.5690000,101285.920000,0,0,0
5.287,0.0012000,0.0024000,9.8017000,0.0076000,0.0000000,0.0153000,-29.3880000,19.4280000,16.8500000,101285.920000,0,0,0
5.297,-0.0012000,0.0012000,9.8017000,0.0076000,0.0000000,0.0153000,-29.2140000,19.2630000,16.6780000,101285.600000,0,0,0
5.307,-0.0024000,0.0024000,9.8017000,0.0153000,0.0000000,0.0076000,-29.4800000,19.2290000,16.0520000,101285.600000,0,0,0
5.317,-0.0024000,0.0024000,9.8005000,0.0153000,0.0000000,0.0000000,-29.2790000,19.2280000,16.2100000,101285.850000,0,0,0
5.327,-0.0012000,0.0036000,9.8005000,0.0076000,0.0076000,0.0000000,-29.5420000,19.1250000,16.0900000,101285.850000,0,0,0
5.337,0.0012000,0.0036000,9.8017000,0.0076000,0.0000000,0.0000000,-29.6480000,19.0670000,16.2750000,101284.080000,0,0,0
5.347,0.0024000,0.0012000,9.8017000,0.0000000,0.0000000,0.0000000,-29.3980000,19.5770000,16.2920000,101284.080000,0,0,0
5.357,0.0024000,0.0000000,9.7993000,0.0000000,0.0000000,0.0000000,-29.1120000,19.0870000,16.6070000,101283.720000,0,0,0
5.367,0.0012000,-0.0012000,9.7981000,-0.0076000,0.0000000,0.0076000,-29.4160000,18.9950000,17.2820000,101283.720000,0,0,0
5.377,0.0000000,-0.0012000,9.7981000,0.0000000,0.0000000,0.0076000,-29.4930000,19.3960000,17.6930000,101285.610000,0,0,0
5.387,0.0000000,-0.0012000,9.7981000,0.0000000,0.0076000,0.0076000,-29.6760000,19.0900000,17.2010000,101285.610000,0,0,0
5.397,-0.0012000,0.0000000,9.7957000,0.0000000,0.0076000,0.0076000,-29.2940000,18.9670000,16.5990000,101285.450000,0,0,0
5.407,-0.0024000,0.0000000,9.7945000,-0.0076000,0.0000000,0.0153000,-29.6130000,19.1090000,16.8970000,101285.450000,0,0,0
5.417,-0.0036000,-0.0012000,9.7945000,-0.0076000,0.0000000,0.0153000,-29.5330000,18.9870000,16.0060000,101282.120000,0,0,0
5.427,-0.0048000,-0.0012000,9.7957000,0.0000000,0.0000000,0.0076000,-29.1220000,19.0180000,16.6460000,101282.120000,0,0,0
5.437,-0.0036000,-0.0012000,9.7957000,0.0000000,0.0000000,0.0000000,-29.3230000,18.9980000,16.3710000,101285.570000,0,0,0
5.447,-0.0024000,0.0000000,9.7957000,0.0076000,0.0000000,0.0000000,-29.3410000,19.2810000,17.1290000,101285.570000,0,0,0
5.457,0.0000000,0.0024000,9.7969000,0.0076000,0.0000000,-0.0076000,-29.5600000,19.0890000,16.7800000,101283.720000,0,0,0
5.467,0.0036000,0.0012000,9.7981000,0.0076000,-0.0076000,-0.0076000,-29.6150000,18.8980000,16.8270000,101283.720000,0,0,0
5.477,0.0036000,0.0000000,9.7981000,0.0076000,-0.0076000,0.0000000,-29.8310000,19.1720000,16.9000000,101285.480000,0,0,0
5.487,0.0036000,0.0012000,9.7981000,0.0153000,-0.0076000,0.0076000,-29.6530000,18.9040000,16.5440000,101285.480000,0,0,0
5.497,0.0012000,0.0024000,9.7969000,0.0229000,0.0000000,0.0076000,-29.4050000,19.0160000,16.6870000,101283.810000,0,0,0
5.507,0.0000000,0.0036000,9.7981000,0.0229000,-0.0076000,0.0153000,-29.4200000,18.7850000,16.2250000,101283.810000,0,0,0
5.517,0.0012000,0.0048000,9.7993000,0.0305000,-0.0076000,0.0153000,-29.3490000,19.1870000,17.2510000,101283.120000,0,0,0
5.527,0.0036000,0.0048000,9.8005000,0.0305000,0.0000000,0.0153000,-29.7060000,18.9290000,16.4720000,101283.120000,0,0,0
5.537,0.0048000,0.0024000,9.8005000,0.0305000,0.0000000,0.0153000,-29.5110000,18.8220000,16.7630000,101285.570000,0,0,0
5.547,0.0060000,0.0000000,9.8017000,0.0229000,0.0000000,0.0153000,-29.5770000,18.8270000,16.6620000,101285.570000,0,0,0
5.557,0.0048000,-0.0012000,9.8005000,0.0153000,0.0076000,0.0229000,-29.5760000,18.9880000,16.9590000,101286.140000,0,0,0
5.567,0.0024000,-0.0024000,9.7993000,0.0076000,0.0076000,0.0229000,-29.2990000,19.0800000,16.6460000,101286.140000,0,0,0
5.577,0.0000000,-0.0024000,9.7981000,0.0076000,0.0153000,0.0229000,-29.4530000,19.2910000,16.8680000,101285.890000,0,0,0
5.587,0.0000000,-0.0024000,9.7981000,0.0076000,0.0229000,0.0229000,-29.4230000,18.9050000,16.0450000,101285.890000,0,0,0
5.597,-0.0012000,-0.0036000,9.7981000,0.0153000,0.0153000,0.0153000,-29.4810000,19.0260000,16.8350000,101279.930000,0,0,0
5.607,-0.0012000,-0.0036000,9.7981000,0.0076000,0.0153000,0.0153000,-29.5520000,19.0190000,16.5800000,101279.930000,0,0,0
5.617,0.0000000,-0.0036000,9.7969000,0.0076000,0.0153000,0.0076000,-29.2320000,19.1170000,16.7020000,101287.440000,0,0,0
5.627,0.0012000,-0.0036000,9.7981000,0.0153000,0.0076000,0.0076000,-29.1860000,18.8760000,16.1290000,101287.440000,0,0,0
5.637,0.0024000,-0.0012000,9.7993000,0.0153000,0.0076000,0.0153000,-29.4500000,18.9420000,17.2890000,101283.370000,0,0,0
5.647,0.0024000,0.0000000,9.7993000,0.0153000,0.0076000,0.0076000,-29.5600000,19.0840000,16.0400000,101283.370000,0,0,0
5.657,0.0024000,0.0000000,9.7981000,0.0153000,0.0076000,0.0000000,-29.4970000,18.8870000,15.8160000,101285.410000,0,0,0
5.667,0.0012000,-0.0012000,9.7969000,0.0153000,0.0000000,-0.0076000,-29.4900000,18.8640000,16.2640000,101285.410000,0,0,0
5.677,0.0012000,-0.0012000,9.8005000,0.0076000,0.0000000,-0.0076000,-29.3980000,18.8870000,16.1160000,101285.890000,0,0,0
5.687,0.0012000,-0.0012000,9.8005000,0.0076000,0.0000000,-0.0076000,-29.5130000,18.8710000,16.5050000,101285.890000,0,0,0
5.697,0.0012000,-0.0012000,9.7993000,0.0076000,0.0000000,-0.0076000,-29.4370000,19.0470000,16.1840000,101279.590000,0,0,0
5.707,0.0012000,-0.0012000,9.7969000,0.0000000,0.0000000,-0.0076000,-29.3660000,19.3070000,16.2960000,101279.590000,0,0,0
5.717,0.0012000,0.0000000,9.7981000,0.0076000,0.0076000,0.0000000,-29.4860000,19.1300000,16.7520000,101285.920000,0,0,0
5.727,0.0012000,0.0000000,9.8005000,0.0153000,0.0076000,0.0000000,-29.5000000,19.3150000,15.8900000,101285.920000,0,0,0
5.737,0.0024000,0.0012000,9.8017000,0.0153000,0.0076000,0.0076000,-29.6220000,19.3740000,16.7120000,101285.950000,0,0,0
5.747,0.0012000,0.0012000,9.8005000,0.0153000,0.0076000,0.0076000,-29.0730000,19.0020000,16.5790000,101285.950000,0,0,0
5.757,0.0012000,0.0024000,9.7993000,0.0153000,0.0000000,0.0153000,-29.3040000,19.1250000,16.7070000,101285.790000,0,0,0
5.767,0.0012000,0.0036000,9.7993000,0.0153000,0.0076000,0.0153000,-29.5140000,19.0360000,16.5660000,101285.790000,0,0,0
5.777,0.0012000,0.0036000,9.7981000,0.0076000,0.0076000,0.0153000,-29.6530000,19.1120000,16.6750000,101283.480000,0,0,0
5.787,0.0024000,0.0036000,9.7981000,0.0153000,0.0076000,0.0076000,-29.5510000,19.1290000,16.8970000,101283.480000,0,0,0
5.797,0.0024000,0.0024000,9.7993000,0.0153000,0.0153000,0.0000000,-29.5040000,19.2350000,16.8390000,101281.730000,0,0,0
5.807,0.0012000,0.0000000,9.7993000,0.0229000,0.0153000,-0.0076000,-29.4670000,19.0260000,16.7640000,101281.730000,0,0,0
5.817,0.0012000,-0.0012000,9.7993000,0.0305000,0.0229000,-0.0076000,-29.2590000,19.1700000,16.9050000,101285.920000,0,0,0
5.827,0.0012000,-0.0024000,9.7981000,0.0381000,0.0229000,-0.0076000,-29.3810000,19.1050000,16.5490000,101285.920000,0,0,0
5.837,0.0012000,-0.0024000,9.7969000,0.0381000,0.0229000,0.0000000,-29.5020000,19.3220000,16.6830000,101285.610000,0,0,0
5.847,0.0012000,-0.0012000,9.7969000,0.0305000,0.0153000,0.0000000,-29.4180000,19.0180000,16.5720000,101285.610000,0,0,0
5.857,0.0024000,0.0000000,9.7969000,0.0229000,0.0153000,0.0000000,-29.4790000,18.9390000,17.3020000,101284.660000,0,0,0
5.867,0.0036000,0.0000000,9.7969000,0.0153000,0.0076000,0.0000000,-29.3320000,19.1550000,16.8710000,101284.660000,0,0,0
5.877,0.0024000,-0.0012000,9.7957000,0.0076000,0.0076000,0.0076000,-29.2170000,18.9580000,16.9120000,101283.740000,0,0,0
5.887,0.0012000,-0.0024000,9.7957000,0.0076000,0.0000000,0.0076000,-29.3940000,18.7670000,16.5700000,101283.740000,0,0,0
5.897,0.0012000,-0.0024000,9.7981000,0.0076000,0.0000000,0.0076000,-29.4420000,19.2750000,16.4200000,101283.810000,0,0,0
5.907,0.0000000,-0.0024000,9.8005000,0.0076000,0.0076000,0.0153000,-29.6220000,18.8490000,16.5470000,101283.810000,0,0,0
5.917,0.0012000,-0.0012000,9.8005000,0.0076000,0.0076000,0.0153000,-29.3080000,18.7610000,15.7660000,101287.410000,0,0,0
5.927,0.0036000,0.0000000,9.7993000,0.0076000,0.0076000,0.0076000,-29.3200000,18.8490000,16.2290000,101287.410000,0,0,0
5.937,0.0048000,0.0000000,9.7993000,0.0076000,0.0076000,0.0076000,-29.7480000,18.6430000,16.5830000,101283.500000,0,0,0
5.947,0.0036000,0.0012000,9.7993000,0.0076000,0.0076000,0.0000000,-29.8830000,18.9300000,16.0260000,101283.500000,0,0,0
5.957,0.0036000,0.0012000,9.7993000,0.0153000,0.0000000,0.0000000,-29.2790000,18.8690000,15.5600000,101285.760000,0,0,0
5.967,0.0012000,0.0000000,9.8005000,0.0153000,0.0000000,0.0000000,-29.4550000,18.8210000,16.0220000,101285.760000,0,0,0
5.977,-0.0012000,-0.0012000,9.8017000,0.0153000,0.0000000,0.0000000,-29.5910000,18.7070000,16.4520000,101281.190000,0,0,0
5.987,-0.0024000,-0.0024000,9.8005000,0.0153000,0.0000000,0.0076000,-29.2840000,18.6670000,16.6720000,101281.190000,0,0,0
5.997,-0.0012000,-0.0024000,9.8017000,0.0229000,-0.0076000,0.0076000,-29.2820000,18.8730000,16.9720000,101285.890000,0,0,0
6.007,0.0000000,-0.0012000,9.8017000,0.0229000,-0.0076000,0.0076000,-29.1720000,18.9410000,16.2930000,101285.890000,0,0,0
6.017,0.0012000,0.0012000,9.8029000,0.0153000,-0.0076000,0.0000000,-29.6360000,19.1080000,16.7840000,101285.610000,0,0,0
6.027,0.0024000,0.0036000,9.8029000,0.0076000,-0.0076000,0.0000000,-29.3610000,18.7870000,16.7800000,101285.610000,0,0,0
6.037,0.0036000,0.0036000,9.8017000,0.0076000,-0.0076000,0.0000000,-29.2030000,19.0970000,16.7080000,101283.500000,0,0,0
6.047,0.0036000,0.0048000,9.8017000,0.0076000,0.0000000,0.0000000,-29.2850000,19.1220000,17.0100000,101283.500000,0,0,0
6.057,0.0024000,0.0048000,9.8029000,0.0076000,0.0076000,0.0000000,-29.2650000,18.8460000,17.2400000,101283.500000,0,0,0
6.067,0.0036000,0.0048000,9.8017000,0.0000000,0.0076000,0.0000000,-29.4600000,19.0040000,16.6650000,101283.500000,0,0,0
6.077,0.0024000,0.0036000,9.8005000,0.0000000,0.0076000,0.0000000,-29.5300000,18.9390000,17.9260000,101279.670000,0,0,0
6.087,0.0024000,0.0024000,9.8005000,0.0000000,0.0000000,0.0000000,-29.6010000,18.8700000,17.1410000,101279.670000,0,0,0
6.097,0.0012000,0.0024000,9.8005000,0.0153000,0.0000000,0.0076000,-29.5680000,19.0400000,17.2550000,101283.490000,0,0,0
6.107,0.0012000,0.0024000,9.8017000,0.0153000,0.0000000,0.0076000,-29.8340000,18.9820000,17.2150000,101283.490000,0,0,0
6.117,0.0012000,0.0000000,9.8029000,0.0229000,-0.0076000,0.0076000,-29.4440000,18.8690000,16.6800000,101283.810000,0,0,0
6.127,0.0012000,-0.0012000,9.8029000,0.0229000,-0.0153000,-0.5035000,-29.5890000,18.9740000,16.9660000,101283.810000,0,0,0
6.137,0.0024000,-0.0012000,9.8017000,0.0153000,-0.0076000,0.0076000,-29.7010000,18.9560000,16.5680000,101285.920000,0,0,0
6.147,0.0048000,0.0000000,9.8005000,0.0076000,-0.0076000,0.0000000,-29.2510000,18.7580000,17.6170000,101285.920000,0,0,0
6.157,0.0048000,0.0000000,9.7993000,0.0076000,-0.0076000,0.0000000,-29.5320000,19.0980000,17.2070000,101287.510000,0,0,0
6.167,0.0036000,0.0000000,9.7993000,0.0153000,0.0000000,0.0000000,-29.3740000,18.8600000,16.6440000,101287.510000,0,0,0
6.177,0.0012000,-0.0012000,9.7981000,0.0229000,0.0000000,0.0000000,-29.3670000,18.9460000,16.2230000,101283.720000,0,0,0
6.187,0.0000000,-0.0024000,9.7981000,0.0229000,0.0076000,0.0000000,-29.4290000,18.9690000,16.8630000,101283.720000,0,0,0
6.197,-0.0012000,-0.0024000,9.7993000,0.0229000,0.0153000,0.0000000,-29.6390000,19.0760000,16.3690000,101283.720000,0,0,0
6.207,-0.0012000,-0.0024000,9.8005000,0.0229000,0.0153000,-0.0076000,-29.4420000,19.1150000,16.4690000,101283.720000,0,0,0
6.217,0.0012000,-0.0012000,9.7993000,0.0229000,0.0229000,0.0000000,-29.4970000,18.9740000,16.8820000,101285.950000,0,0,0
6.227,0.0012000,-0.0024000,9.7993000,0.0229000,0.0229000,0.0000000,-29.4220000,18.9410000,17.1620000,101285.950000,0,0,0
6.237,0.0024000,-0.0024000,9.7981000,0.0229000,0.0153000,0.0000000,-29.8730000,18.9130000,17.1970000,101283.850000,0,0,0
6.247,0.0024000,-0.0024000,9.8005000,0.0229000,0.0076000,0.0000000,-29.7950000,18.9700000,17.1580000,101283.850000,0,0,0
6.257,0.0012000,-0.0024000,9.8017000,0.0229000,0.0153000,0.0076000,-29.7680000,19.2290000,17.2670000,101285.740000,0,0,0
6.267,0.0012000,0.0000000,9.8017000,0.0229000,0.0153000,0.0000000,-29.4830000,18.8870000,17.2000000,101285.740000,0,0,0
6.277,0.0024000,0.0012000,9.8005000,0.0153000,0.0153000,0.0076000,-29.1030000,18.6560000,17.6190000,101287.340000,0,0,0
6.287,0.0024000,0.0012000,9.8005000,0.0153000,0.0153000,0.0076000,-29.6670000,18.7440000,16.7100000,101287.340000,0,0,0
6.297,0.0036000,0.0024000,9.8005000,0.0153000,0.0076000,0.0153000,-29.5820000,19.2190000,16.7370000,101285.850000,0,0,0
6.307,0.0036000,0.0024000,9.8005000,0.0153000,0.0076000,0.0153000,-29.4720000,18.7600000,16.9940000,101285.850000,0,0,0
6.317,0.0012000,0.0036000,9.8017000,0.0076000,0.0076000,0.0153000,-29.6010000,19.1720000,17.1030000,101287.170000,0,0,0
6.327,-0.0012000,0.0024000,9.8017000,0.0076000,0.0076000,0.0153000,-29.6880000,18.9420000,16.4990000,101287.170000,0,0,0
6.337,-0.0024000,0.0024000,9.8017000,0.0000000,0.0000000,0.0153000,-29.5460000,19.0390000,17.2580000,101285.610000,0,0,0
6.347,-0.0024000,0.0024000,9.8005000,0.0076000,0.0000000,0.0229000,-29.2640000,19.0210000,17.0560000,101285.610000,0,0,0
6.357,0.0000000,0.0012000,9.7993000,0.0153000,-0.0076000,0.0229000,-29.4530000,18.9530000,16.8580000,101285.830000,0,0,0
6.367,0.0012000,0.0012000,9.8005000,0.0153000,0.0000000,0.0229000,-29.6230000,18.9990000,16.4430000,101285.830000,0,0,0
6.377,0.0012000,0.0012000,9.8005000,0.0153000,0.0000000,0.0153000,-29.3870000,19.0840000,16.8480000,101284.880000,0,0,0
6.387,0.0000000,0.0000000,9.8005000,0.0229000,0.0000000,0.0153000,-29.8160000,18.9050000,16.3960000,101284.880000,0,0,0
6.397,-0.0012000,0.0012000,9.8005000,0.0229000,0.0000000,0.0153000,-29.7820000,19.0770000,16.5500000,101285.190000,0,0,0
6.407,-0.0012000,0.0012000,9.8005000,0.0153000,0.0000000,0.0076000,-29.2730000,19.0550000,16.3410000,101285.190000,0,0,0
6.417,-0.0012000,0.0024000,9.8005000,0.0153000,0.0000000,0.0000000,-29.9790000,18.7620000,16.7240000,101287.200000,0,0,0
6.427,-0.0012000,0.0036000,9.8005000,0.0153000,0.0000000,-0.0076000,-29.4730000,18.7760000,15.8060000,101287.200000,0,0,0
6.437,-0.0012000,0.0024000,9.7981000,0.0076000,0.0000000,0.0000000,-29.2550000,19.0500000,16.5470000,101283.340000,0,0,0
6.447,-0.0024000,0.0012000,9.7969000,0.0076000,0.0000000,0.0076000,-29.4070000,18.7390000,16.3120000,101283.340000,0,0,0
6.457,-0.0012000,-0.0012000,9.7969000,0.0076000,0.0000000,0.0076000,-29.5550000,19.2610000,15.6110000,101287.280000,0,0,0
6.467,0.0012000,-0.0012000,9.7981000,0.0076000,0.0000000,0.0153000,-29.4250000,19.0550000,16.1060000,101287.280000,0,0,0
6.477,0.0024000,-0.0012000,9.8005000,0.0076000,0.0000000,0.0076000,-29.3120000,19.0880000,16.0880000,101285.180000,0,0,0
6.487,0.0024000,0.0000000,9.8005000,0.0076000,0.0000000,0.0076000,-29.6280000,18.5600000,15.6050000,101285.180000,0,0,0
6.497,0.0012000,0.0012000,9.8005000,0.0153000,0.0000000,0.0076000,-29.4030000,18.9450000,16.3340000,101283.270000,0,0,0
6.507,0.0012000,0.0012000,9.7993000,0.0153000,0.0000000,0.0153000,-29.3980000,18.7910000,16.7380000,101283.270000,0,0,0
6.517,0.0012000,0.0012000,9.7969000,0.0153000,-0.0076000,0.0153000,-29.5250000,19.0020000,16.2220000,101285.270000,0,0,0
6.527,0.0012000,0.0000000,9.7969000,0.0229000,-0.0076000,0.0153000,-29.5110000,18.6730000,16.3920000,101285.270000,0,0,0
6.537,0.0000000,-0.0024000,9.7969000,0.0229000,0.0000000,0.0076000,-29.4080000,18.6360000,16.6020000,101283.480000,0,0,0
6.547,-0.0012000,-0.0036000,9.7981000,0.0153000,0.0000000,0.0000000,-29.8320000,18.9310000,16.4740000,101283.480000,0,0,0
6.557,-0.0012000,-0.0036000,9.7993000,0.0153000,0.0000000,0.0000000,-29.6640000,19.1020000,16.4010000,101285.610000,0,0,0
6.567,-0.0012000,-0.0036000,9.8005000,0.0076000,0.0000000,0.0000000,-29.4420000,18.7400000,16.5370000,101285.610000,0,0,0
6.577,0.0012000,-0.0024000,9.8005000,0.0076000,0.0000000,0.0076000,-29.2550000,19.0280000,16.7940000,101280.700000,0,0,0
6.587,0.0024000,-0.0012000,9.8017000,0.0153000,0.0000000,0.0076000,-29.5050000,18.8200000,16.2650000,101280.700000,0,0,0
6.597,0.0024000,0.0012000,9.8029000,0.0153000,0.0076000,0.0153000,-29.4740000,18.8680000,16.9330000,101285.040000,0,0,0
6.607,0.0024000,0.0024000,9.8029000,0.0153000,0.0153000,0.0153000,-29.5110000,18.8600000,16.2940000,101285.040000,0,0,0
6.617,0.0012000,0.0024000,9.8017000,0.0153000,0.0229000,0.0153000,-29.8960000,18.8180000,17.0110000,101282.800000,0,0,0
6.627,0.0000000,0.0012000,9.8017000,0.0076000,0.0229000,0.0076000,-29.4730000,18.8800000,16.4880000,101282.800000,0,0,0
6.637,-0.0012000,0.0000000,9.8005000,0.0000000,0.0229000,0.0076000,-29.8100000,18.9620000,16.5700000,101281.630000,0,0,0
6.647,-0.0012000,0.0000000,9.8005000,0.0000000,0.0153000,0.0000000,-29.3990000,19.0230000,16.2810000,101281.630000,0,0,0
6.657,-0.0012000,0.0000000,9.8005000,0.0000000,0.0076000,0.0000000,-29.8540000,19.1210000,16.0500000,101281.000000,0,0,0
6.667,-0.0012000,0.0000000,9.7993000,0.0000000,0.0076000,-0.0076000,-29.8030000,18.4350000,16.0100000,101281.000000,0,0,0
6.677,0.0000000,0.0000000,9.7981000,0.0000000,0.0000000,0.0000000,-29.4040000,18.9680000,17.0220000,101283.480000,0,0,0
6.687,0.0000000,0.0012000,9.7981000,0.0000000,0.0000000,0.0000000,-29.4840000,18.9140000,17.3100000,101283.480000,0,0,0
6.697,0.0012000,0.0024000,9.7993000,-0.0076000,0.0000000,0.0000000,-29.5280000,18.7550000,16.4630000,101284.670000,0,0,0
6.707,0.0024000,0.0024000,9.8005000,-0.0076000,0.0000000,0.0000000,-29.5520000,18.6370000,17.1100000,101284.670000,0,0,0
6.717,0.0036000,0.0012000,9.8005000,0.0000000,0.0000000,0.0076000,-29.7410000,18.9310000,16.8930000,101286.960000,0,0,0
6.727,0.0024000,0.0012000,9.8017000,0.0000000,0.0076000,0.0076000,-29.6450000,18.4940000,16.4710000,101286.960000,0,0,0
6.737,0.0012000,0.0012000,9.8017000,0.0076000,0.0153000,0.0076000,-29.5400000,18.8940000,17.4860000,101281.720000,0,0,0
6.747,0.0000000,0.0012000,9.8029000,0.0076000,0.0153000,0.0076000,-29.6470000,18.7290000,17.5490000,101281.720000,0,0,0
6.757,-0.0024000,0.0024000,9.8029000,0.0153000,0.0153000,0.0076000,-29.7670000,18.8540000,16.8670000,101285.610000,0,0,0
6.767,-0.0036000,0.0036000,9.8005000,0.0153000,0.0153000,0.0076000,-29.3390000,18.5980000,16.6500000,101285.610000,0,0,0
6.777,-0.0024000,0.0024000,9.8005000,0.0153000,0.0153000,0.0076000,-29.6940000,19.0720000,16.8630000,101285.590000,0,0,0
6.787,0.0012000,0.0012000,9.8017000,0.0153000,0.0076000,0.0076000,-29.5680000,18.8660000,16.9690000,101285.590000,0,0,0
6.797,0.0048000,0.0012000,9.8029000,0.0076000,0.0000000,0.0076000,-29.7550000,18.8220000,16.8620000,101287.200000,0,0,0
6.807,0.0072000,0.0024000,9.8017000,0.0000000,0.0000000,0.0153000,-29.7070000,18.6100000,17.0610000,101287.200000,0,0,0
6.817,0.0084000,0.0024000,9.8005000,0.0000000,0.0000000,0.0229000,-29.6470000,19.0320000,16.8930000,101285.450000,0,0,0
6.827,0.0084000,0.0012000,9.8005000,0.0000000,0.0000000,0.0229000,-29.7270000,18.6760000,16.4400000,101285.450000,0,0,0
6.837,0.0060000,0.0012000,9.8005000,0.0000000,0.0076000,0.0229000,-29.5700000,18.9300000,16.8500000,101285.590000,0,0,0
6.847,0.0036000,0.0000000,9.7993000,0.0000000,0.0076000,0.0229000,-29.4460000,18.8440000,16.4690000,101285.590000,0,0,0
6.857,0.0024000,-0.0012000,9.7981000,0.0000000,0.0000000,0.0229000,-29.7800000,18.9710000,16.6570000,101283.500000,0,0,0
6.867,0.0012000,-0.0012000,9.7981000,0.0000000,0.0076000,0.0229000,-29.7470000,18.8000000,16.6410000,101283.500000,0,0,0
6.877,0.0000000,-0.0012000,9.7993000,-0.0076000,0.0076000,0.0153000,-29.4000000,18.8670000,16.8220000,101287.410000,0,0,0
6.887,0.0000000,0.0000000,9.7993000,-0.0076000,0.0076000,0.0153000,-29.5790000,18.8980000,16.7020000,101287.410000,0,0,0
6.897,0.0000000,0.0000000,9.7993000,-0.0076000,0.0076000,0.0076000,-29.6810000,18.7160000,16.6630000,101285.920000,0,0,0
6.907,0.0000000,0.0000000,9.8005000,0.0000000,0.0000000,0.0076000,-29.2840000,18.7120000,17.0380000,101285.920000,0,0,0
6.917,0.0000000,-0.0012000,9.8005000,0.0076000,-0.0076000,0.0000000,-29.5660000,19.1990000,17.7290000,101285.270000,0,0,0
6.927,0.0000000,0.0000000,9.8005000,0.0076000,0.0000000,-0.0076000,-29.8340000,18.8070000,16.7380000,101285.270000,0,0,0
6.937,0.0000000,0.0000000,9.7993000,0.0153000,0.0000000,-0.0153000,-29.5000000,19.2310000,16.2290000,101285.160000,0,0,0
6.947,0.0024000,0.0000000,9.8005000,0.0153000,0.0000000,-0.0153000,-29.7970000,19.1610000,15.8800000,101285.160000,0,0,0
6.957,0.0036000,-0.0012000,9.8005000,0.0153000,0.0076000,-0.0153000,-29.8190000,19.2240000,16.1810000,101285.180000,0,0,0
6.967,0.0036000,-0.0012000,9.8005000,0.0076000,0.0153000,-0.0076000,-29.7170000,18.9600000,16.0900000,101285.180000,0,0,0
6.977,0.0024000,0.0000000,9.8005000,0.0076000,0.0229000,0.0000000,-29.6780000,19.2760000,16.7890000,101284.990000,0,0,0
6.987,0.0024000,0.0012000,9.8005000,0.0153000,0.0153000,0.0000000,-29.8200000,18.9280000,16.9390000,101284.990000,0,0,0
6.997,0.0012000,0.0012000,9.8005000,0.0229000,0.0076000,0.0000000,-29.8780000,19.3760000,16.8010000,101286.730000,0,0,0
7.007,0.0000000,0.0012000,9.8005000,0.0229000,0.0076000,0.0000000,-29.6950000,19.0480000,16.3580000,101286.730000,0,0,0
7.017,0.0000000,0.0000000,9.7993000,0.0153000,0.0000000,0.0000000,-29.7140000,19.1650000,16.5460000,101279.260000,0,0,0
7.027,0.0000000,-0.0012000,9.7993000,0.0153000,0.0000000,-0.0076000,-29.6050000,18.9710000,16.6580000,101279.260000,0,0,0
7.037,0.0000000,-0.0024000,9.8005000,0.0076000,0.0000000,-0.0153000,-29.6940000,19.1200000,17.0620000,101285.590000,0,0,0
7.047,0.0000000,-0.0024000,9.8017000,0.0000000,-0.0076000,-0.0076000,-29.4630000,19.1000000,16.6190000,101285.590000,0,0,0
7.057,0.0000000,-0.0012000,9.8029000,0.0000000,-0.0076000,0.0000000,-29.7900000,19.1110000,17.0390000,101284.790000,0,0,0
7.067,0.0000000,0.0000000,9.8029000,0.0000000,0.0000000,0.0000000,-29.8590000,18.9760000,17.2260000,101284.790000,0,0,0
7.077,0.0000000,-0.0012000,9.8029000,-0.0076000,0.0076000,0.0000000,-29.6870000,18.9350000,17.6640000,101285.610000,0,0,0
7.087,0.0000000,0.0000000,9.8005000,0.0000000,0.0076000,0.0000000,-29.6520000,19.1550000,18.1650000,101285.610000,0,0,0
7.097,0.0000000,0.0000000,9.7993000,0.0076000,0.0076000,0.0000000,-29.3820000,18.9580000,17.5840000,101285.250000,0,0,0
7.107,0.0012000,0.0000000,9.7993000,0.0076000,0.0153000,0.0000000,-29.5630000,19.2740000,17.2320000,101285.250000,0,0,0
7.117,0.0036000,0.0000000,9.7993000,0.0076000,0.0153000,0.0076000,-29.5690000,19.1680000,17.0740000,101283.030000,0,0,0
7.127,0.0048000,0.0000000,9.8005000,0.0076000,0.0153000,0.0076000,-29.4490000,19.0210000,16.8850000,101283.030000,0,0,0
7.137,0.0048000,-0.0012000,9.7993000,0.0153000,0.0076000,0.0076000,-29.4840000,19.1160000,17.3800000,101283.270000,0,0,0
7.147,0.0048000,-0.0012000,9.7993000,0.0229000,0.0000000,0.0076000,-29.7300000,18.6960000,16.8600000,101283.270000,0,0,0
7.157,0.0036000,-0.0024000,9.7993000,0.0153000,-0.0076000,0.0000000,-29.4050000,19.2100000,17.1760000,101283.050000,0,0,0
7.167,0.0012000,-0.0024000,9.7993000,0.0076000,-0.0076000,0.0000000,-29.4430000,19.1870000,17.1660000,101283.050000,0,0,0
7.177,-0.0024000,-0.0024000,9.7993000,0.0000000,-0.0076000,0.0076000,-29.4630000,19.1380000,16.5410000,101286.970000,0,0,0
7.187,-0.0024000,-0.0024000,9.7981000,0.0000000,0.0000000,0.0076000,-29.2740000,19.0810000,16.6180000,101286.970000,0,0,0
7.197,-0.0024000,-0.0012000,9.7981000,0.0076000,0.0000000,0.0000000,-29.5470000,19.1240000,17.2180000,101283.050000,0,0,0
7.207,-0.0024000,0.0012000,9.7981000,0.0076000,0.0000000,0.0000000,-29.3040000,19.1940000,16.7110000,101283.050000,0,0,0
7.217,0.0000000,0.0012000,9.7969000,0.0076000,0.0000000,0.0000000,-29.3410000,18.9720000,16.6750000,101285.270000,0,0,0
7.227,0.0012000,0.0024000,9.7957000,0.0076000,-0.0076000,0.0000000,-29.3620000,19.3900000,16.7480000,101285.270000,0,0,0
7.237,0.0012000,0.0024000,9.7957000,0.0076000,-0.0076000,0.0000000,-29.3990000,18.8120000,16.2420000,101285.140000,0,0,0
7.247,0.0012000,0.0012000,9.7981000,0.0076000,0.0000000,0.0000000,-29.3450000,18.9320000,16.9590000,101285.140000,0,0,0
7.257,0.0012000,-0.0012000,9.7993000,0.0000000,0.0076000,0.0000000,-29.5660000,19.2940000,17.0170000,101285.590000,0,0,0
7.267,0.0024000,-0.0012000,9.7981000,0.0000000,0.0076000,0.0000000,-29.6730000,19.0050000,16.9740000,101285.590000,0,0,0
7.277,0.0036000,-0.0012000,9.7981000,0.0000000,0.0076000,0.0000000,-29.4460000,18.9670000,16.5260000,101284.930000,0,0,0
7.287,0.0048000,0.0000000,9.7993000,0.0000000,0.0076000,0.0076000,-29.3960000,19.1820000,16.7790000,101284.930000,0,0,0
7.297,0.0048000,0.0012000,9.7981000,-0.0076000,0.0076000,0.0076000,-29.3480000,19.1440000,17.1660000,101278.960000,0,0,0
7.307,0.0048000,0.0012000,9.7969000,-0.0076000,0.0076000,0.0076000,-29.6100000,19.0040000,17.0860000,101278.960000,0,0,0
7.317,0.0036000,0.0012000,9.7957000,0.0000000,0.0076000,0.0153000,-29.6260000,18.9520000,17.1510000,101285.610000,0,0,0
7.327,0.0024000,0.0012000,9.7969000,0.0000000,0.0000000,0.0076000,-29.5570000,18.9120000,16.7760000,101285.610000,0,0,0
7.337,0.0012000,0.0012000,9.7981000,0.0076000,0.0000000,0.0000000,-29.5160000,18.7230000,17.3410000,101283.700000,0,0,0
7.347,0.0012000,0.0012000,9.7981000,0.0153000,0.0000000,-0.0076000,-29.4860000,18.8690000,17.5960000,101283.700000,0,0,0
7.357,0.0012000,0.0012000,9.7993000,0.0153000,0.0000000,0.0000000,-29.7240000,18.9470000,17.8050000,101285.270000,0,0,0
7.367,0.0000000,0.0000000,9.7993000,0.0153000,0.0000000,0.0000000,-29.7220000,18.9830000,16.8360000,101285.270000,0,0,0
7.377,0.0012000,-0.0012000,9.8005000,0.0153000,0.0000000,0.0000000,-29.6980000,18.9730000,17.5290000,101286.970000,0,0,0
7.387,0.0012000,-0.0012000,9.7993000,0.0076000,0.0076000,0.0076000,-29.4030000,18.9460000,17.4090000,101286.970000,0,0,0
7.397,0.0024000,-0.0012000,9.7981000,0.0076000,0.0000000,0.0076000,-29.6980000,18.8870000,17.6110000,101285.030000,0,0,0
7.407,0.0024000,0.0000000,9.7981000,0.0153000,0.0000000,0.0076000,-29.6040000,18.9600000,16.7390000,101285.030000,0,0,0
7.417,0.0024000,0.0000000,9.7981000,0.0153000,0.0000000,0.0076000,-29.4810000,19.4660000,17.4810000,101283.270000,0,0,0
7.427,0.0024000,-0.0012000,9.7981000,0.0076000,0.0000000,0.0076000,-29.6280000,19.1960000,17.3300000,101283.270000,0,0,0
7.437,0.0024000,-0.0012000,9.7981000,0.0076000,0.0000000,0.0076000,-29.3720000,19.0550000,17.2970000,101285.140000,0,0,0
7.447,0.0024000,-0.0012000,9.7993000,0.0076000,0.0076000,0.0076000,-29.2960000,19.0670000,16.9750000,101285.140000,0,0,0
7.457,0.0012000,-0.0012000,9.7993000,0.0076000,0.0153000,0.0076000,-29.4970000,19.1460000,17.6060000,101283.170000,0,0,0
7.467,0.0036000,0.0000000,9.8005000,0.0076000,0.0153000,0.0076000,-29.4720000,19.2360000,17.4340000,101283.170000,0,0,0
7.477,0.0048000,0.0000000,9.8005000,0.0076000,0.0153000,0.0000000,-29.6220000,19.2340000,18.1420000,101285.740000,0,0,0
7.487,0.0084000,0.0012000,9.7993000,0.0153000,0.0153000,0.0000000,-29.5530000,18.7280000,17.3550000,101285.740000,0,0,0
7.497,0.0072000,0.0036000,9.8017000,0.0153000,0.0000000,0.0000000,-29.6600000,19.0470000,17.6920000,101285.590000,0,0,0
7.507,0.0024000,0.0036000,9.8053000,0.0076000,0.0000000,0.0076000,-29.5930000,18.9770000,17.7930000,101285.590000,0,0,0
7.517,-0.0024000,0.0024000,9.8017000,0.0000000,0.0000000,0.0076000,-29.4860000,19.1710000,17.7460000,101285.140000,0,0,0
7.527,-0.0036000,0.0012000,9.7969000,0.0000000,0.0076000,0.0076000,-29.3940000,18.9810000,16.6010000,101285.140000,0,0,0
7.537,0.0000000,0.0000000,9.7981000,0.0000000,0.0076000,0.0000000,-29.5760000,19.2110000,17.8160000,101283.270000,0,0,0
7.547,0.0036000,0.0000000,9.7993000,0.0000000,0.0076000,0.0000000,-29.3580000,19.2490000,17.6880000,101283.270000,0,0,0
7.557,0.0072000,0.0012000,9.7969000,0.0000000,0.0076000,0.0000000,-29.8700000,19.5270000,17.6670000,101285.460000,0,0,0
7.567,0.0072000,0.0024000,9.7945000,0.0000000,0.0000000,0.0000000,-29.8280000,18.9440000,17.6130000,101285.460000,0,0,0
7.577,0.0060000,0.0012000,9.7957000,0.0076000,0.0000000,0.0000000,-29.5730000,19.1340000,18.0180000,101286.580000,0,0,0
7.587,0.0048000,0.0000000,9.7981000,0.0076000,0.0000000,0.0076000,-29.8560000,18.9280000,17.8240000,101286.580000,0,0,0
7.597,0.0024000,0.0000000,9.7969000,0.0076000,0.0076000,0.0000000,-29.4020000,19.1180000,17.7900000,101285.460000,0,0,0
7.607,0.0000000,-0.0012000,9.7945000,0.0153000,0.0076000,-0.0076000,-29.6900000,18.7930000,16.5200000,101285.460000,0,0,0
7.617,-0.0012000,-0.0012000,9.7957000,0.0153000,0.0000000,-0.0076000,-29.7310000,19.0190000,17.1060000,101279.040000,0,0,0
7.627,0.0000000,0.0000000,9.7981000,0.0153000,0.0000000,-0.0076000,-29.4510000,19.1350000,17.7730000,101279.040000,0,0,0
7.637,0.0012000,0.0012000,9.7981000,0.0153000,0.0000000,-0.0076000,-29.3960000,19.2060000,17.3800000,101280.620000,0,0,0
7.647,0.0012000,0.0024000,9.7969000,0.0153000,0.0000000,0.0000000,-29.7010000,18.9540000,17.2300000,101280.620000,0,0,0
7.657,0.0024000,0.0024000,9.7969000,0.0153000,0.0000000,0.0000000,-29.4400000,18.8710000,17.5670000,101285.270000,0,0,0
7.667,0.0024000,0.0024000,9.7993000,0.0153000,0.0076000,0.0000000,-29.5980000,18.8260000,16.7800000,101285.270000,0,0,0
7.677,0.0024000,0.0024000,9.8005000,0.0229000,0.0076000,0.0076000,-29.4660000,18.7150000,17.3640000,101285.460000,0,0,0
7.687,0.0000000,0.0012000,9.8005000,0.0153000,0.0076000,0.0076000,-29.4920000,18.4660000,17.0170000,101285.460000,0,0,0
7.697,-0.0024000,0.0000000,9.8005000,0.0229000,0.0076000,0.0076000,-29.5710000,18.9620000,17.3300000,101285.140000,0,0,0
7.707,-0.0024000,-0.0012000,9.8017000,0.0229000,0.0153000,0.0076000,-29.6500000,18.9770000,17.1900000,101285.140000,0,0,0
7.717,-0.0024000,-0.0024000,9.8005000,0.0229000,0.0153000,0.0076000,-29.9000000,18.9370000,17.3100000,101286.970000,0,0,0
7.727,0.0000000,-0.0024000,9.7969000,0.0229000,0.0076000,0.0076000,-29.2970000,19.0720000,17.3710000,101286.970000,0,0,0
7.737,0.0024000,-0.0012000,9.7981000,0.0229000,0.0076000,0.0076000,-29.5100000,18.9890000,17.2340000,101283.360000,0,0,0
7.747,0.0024000,-0.0024000,9.8017000,0.0153000,0.0076000,0.0076000,-29.5420000,18.7970000,16.9060000,101283.360000,0,0,0
7.757,0.0012000,-0.0036000,9.8005000,0.0076000,0.0076000,0.0076000,-29.6450000,18.8960000,17.5840000,101285.140000,0,0,0
7.767,0.0012000,-0.0036000,9.7945000,0.0076000,0.0076000,0.0076000,-29.6880000,18.7430000,17.5230000,101285.140000,0,0,0
7.777,0.0012000,-0.0012000,9.7945000,0.0076000,0.0000000,0.0076000,-29.7410000,18.9810000,17.3630000,101281.720000,0,0,0
7.787,0.0012000,0.0000000,9.7981000,0.0000000,0.0000000,0.0000000,-29.5170000,18.9590000,17.7940000,101281.720000,0,0,0
7.797,0.0012000,0.0024000,9.7969000,0.0076000,-0.0076000,0.0000000,-29.5970000,19.0730000,17.7270000,101283.270000,0,0,0
7.807,0.0012000,0.0024000,9.7945000,0.0076000,-0.0076000,0.0000000,-29.7190000,18.7930000,17.0940000,101283.270000,0,0,0
7.817,0.0012000,0.0012000,9.7945000,0.0153000,-0.0076000,0.0000000,-29.6040000,18.8090000,17.0350000,101285.140000,0,0,0
7.827,0.0024000,0.0012000,9.7969000,0.0153000,0.0000000,0.0000000,-29.5990000,19.0500000,17.3350000,101285.140000,0,0,0
7.837,0.0024000,0.0012000,9.7969000,0.0076000,0.0000000,0.0076000,-29.3650000,19.3290000,17.3670000,101285.120000,0,0,0
7.847,0.0024000,0.0000000,9.7945000,0.0076000,0.0076000,0.0076000,-29.5030000,19.1530000,17.5840000,101285.120000,0,0,0
7.857,0.0012000,0.0000000,9.7945000,0.0153000,0.0076000,0.0153000,-29.7640000,18.9790000,16.6750000,101283.520000,0,0,0
7.867,0.0012000,0.0000000,9.7981000,0.0153000,0.0000000,0.0153000,-29.7840000,18.7930000,16.9310000,101283.520000,0,0,0
7.877,-0.0012000,0.0000000,9.8005000,0.0076000,0.0000000,0.0153000,-29.6660000,18.8170000,16.9040000,101285.330000,0,0,0
7.887,-0.0036000,-0.0024000,9.8005000,0.0076000,0.0076000,0.0229000,-29.5180000,18.6350000,17.2590000,101285.330000,0,0,0
7.897,-0.0048000,-0.0048000,9.7981000,0.0076000,0.0000000,0.0153000,-29.6040000,19.0170000,16.5340000,101283.520000,0,0,0
7.907,-0.0024000,-0.0048000,9.7981000,0.0076000,-0.0076000,0.0153000,-29.8960000,18.9540000,16.5220000,101283.520000,0,0,0
7.917,0.0000000,-0.0036000,9.7981000,0.0000000,-0.0076000,0.0076000,-29.5810000,19.2930000,17.3440000,101283.590000,0,0,0
7.927,0.0024000,-0.0012000,9.7969000,0.0076000,0.0000000,0.0076000,-29.2080000,18.8810000,17.7970000,101283.590000,0,0,0
7.937,0.0036000,0.0012000,9.7969000,0.0000000,0.0000000,0.0076000,-29.5620000,19.2090000,17.1920000,101285.210000,0,0,0
7.947,0.0048000,0.0012000,9.7993000,0.0000000,0.0000000,0.0076000,-29.7430000,19.2080000,17.5060000,101285.210000,0,0,0
7.957,0.0036000,0.0000000,9.7993000,0.0000000,0.0000000,0.0076000,-29.6080000,18.8670000,17.5250000,101285.460000,0,0,0
7.967,0.0024000,-0.0012000,9.7981000,0.0000000,0.0000000,0.0076000,-29.3910000,18.9700000,17.3730000,101285.460000,0,0,0
7.977,0.0012000,-0.0012000,9.7981000,0.0000000,0.0076000,0.0076000,-29.6300000,18.9240000,17.1420000,101283.170000,0,0,0
7.987,0.0024000,-0.0012000,9.7981000,0.0076000,0.0076000,0.0000000,-29.5140000,18.7820000,16.8500000,101283.170000,0,0,0
7.997,0.0072000,-0.0012000,9.7957000,0.0153000,0.0076000,0.0000000,-29.8210000,19.2230000,16.5210000,101285.620000,0,0,0
8.007,0.0084000,0.0012000,9.7957000,0.0153000,0.0000000,0.0153000,-29.5690000,18.8120000,16.1730000,101285.620000,0,0,0
8.017,0.0060000,0.0012000,9.7993000,0.0076000,0.0000000,0.0153000,-29.3960000,19.0670000,17.5000000,101279.230000,0,0,0
8.027,-0.0024000,-0.0012000,9.7981000,0.0000000,0.0000000,0.0153000,-29.3300000,18.7930000,17.5840000,101279.230000,0,0,0
8.037,-0.0072000,-0.0036000,9.7921000,0.0000000,0.0000000,0.0076000,-29.3100000,18.8360000,17.0840000,101285.120000,0,0,0
8.047,-0.0060000,-0.0036000,9.7897000,0.0076000,-0.0076000,0.0000000,-29.2500000,19.0900000,17.5240000,101285.120000,0,0,0
8.057,0.0048000,0.0000000,9.7969000,0.0229000,0.0000000,0.0076000,-29.4340000,19.0480000,17.6360000,101285.340000,0,0,0
8.067,0.0084000,0.0024000,9.7969000,0.0229000,0.0000000,0.0076000,-29.7720000,18.9710000,17.7060000,101285.340000,0,0,0
8.077,0.0120000,0.0048000,9.7945000,0.0153000,0.0000000,0.0153000,-29.4980000,19.0050000,17.8690000,101285.460000,0,0,0
8.087,0.0108000,0.0036000,9.7945000,0.0153000,0.0000000,0.0229000,-29.5450000,18.8520000,18.1890000,101285.460000,0,0,0
8.097,0.0048000,0.0012000,9.8005000,0.0076000,0.0000000,0.0153000,-29.5520000,18.7200000,17.5490000,101283.450000,0,0,0
8.107,0.0012000,0.0024000,9.7981000,0.0000000,0.0000000,0.0153000,-29.6110000,18.9090000,17.6740000,101283.450000,0,0,0
8.117,-0.0012000,0.0024000,9.7933000,0.0000000,0.0000000,0.0076000,-29.5800000,18.9300000,17.7760000,101285.530000,0,0,0
8.127,0.0000000,0.0036000,9.7909000,0.0000000,-0.0076000,0.0076000,-29.5040000,19.0950000,17.1770000,101285.530000,0,0,0
8.137,0.0012000,0.0048000,9.7933000,0.0076000,0.0000000,0.0076000,-29.4050000,19.0210000,17.7170000,101283.520000,0,0,0
8.147,0.0012000,0.0036000,9.7945000,0.0076000,0.0076000,0.0000000,-29.3490000,18.8120000,17.1560000,101283.520000,0,0,0
8.157,0.0012000,0.0024000,9.7933000,0.0076000,0.0076000,0.0076000,-29.7440000,19.1410000,17.3690000,101283.360000,0,0,0
8.167,0.0000000,0.0000000,9.7933000,0.0076000,0.0076000,0.0076000,-29.6050000,18.8840000,17.6540000,101283.360000,0,0,0
8.177,0.0000000,-0.0012000,9.7969000,0.0153000,0.0076000,0.0000000,-29.6490000,19.2300000,17.2980000,101283.270000,0,0,0
8.187,0.0000000,0.0000000,9.7981000,0.0153000,0.0076000,0.0076000,-29.6460000,18.7370000,17.2510000,101283.270000,0,0,0
8.197,0.0012000,0.0024000,9.7957000,0.0153000,0.0000000,0.0076000,-29.7140000,19.1590000,17.0810000,101285.220000,0,0,0
8.207,0.0024000,0.0036000,9.7969000,0.0153000,-0.0076000,0.0076000,-29.8720000,19.1220000,17.0060000,101285.220000,0,0,0
8.217,0.0012000,0.0048000,9.7993000,0.0076000,0.0000000,0.0076000,-29.6360000,19.0580000,17.7800000,101285.370000,0,0,0
8.227,-0.0012000,0.0036000,9.7981000,0.0000000,0.0000000,0.0076000,-29.3380000,18.8420000,17.5430000,101285.370000,0,0,0
8.237,-0.0024000,0.0000000,9.7945000,0.0000000,0.0000000,0.0076000,-29.6450000,18.9890000,17.1330000,101283.520000,0,0,0
8.247,0.0000000,-0.0012000,9.7933000,0.0000000,0.0000000,0.0076000,-29.5480000,19.0220000,17.6790000,101283.520000,0,0,0
8.257,0.0024000,0.0000000,9.7981000,0.0000000,0.0000000,0.0076000,-29.6950000,19.1910000,16.6870000,101283.420000,0,0,0
8.267,0.0048000,0.0024000,9.8005000,0.0000000,0.0000000,0.0153000,-29.5300000,18.9250000,16.7620000,101283.420000,0,0,0
8.277,0.0048000,0.0036000,9.7969000,-0.0076000,0.0076000,0.0153000,-29.8230000,18.9330000,17.3100000,101281.400000,0,0,0
8.287,0.0036000,0.0036000,9.7945000,-0.0076000,0.0076000,0.0153000,-29.6850000,18.9780000,17.0970000,101281.400000,0,0,0
8.297,0.0012000,0.0012000,9.7969000,0.0076000,0.0076000,0.0153000,-29.5760000,18.9650000,17.4730000,101282.840000,0,0,0
8.307,0.0000000,0.0000000,9.7993000,0.0153000,0.0153000,0.0076000,-29.7960000,18.8010000,16.7670000,101282.840000,0,0,0
8.317,0.0000000,0.0000000,9.7957000,0.0229000,0.0153000,0.0000000,-29.9940000,18.7240000,17.4130000,101283.170000,0,0,0
8.327,0.0012000,0.0012000,9.7933000,0.0229000,0.0076000,0.0000000,-29.8690000,19.0510000,17.6480000,101283.170000,0,0,0
8.337,0.0036000,0.0012000,9.7969000,0.0305000,0.0076000,0.0000000,-30.0970000,18.9030000,17.7220000,101282.840000,0,0,0
8.347,0.0048000,0.0000000,9.7981000,0.0229000,0.0076000,0.0076000,-29.6940000,18.7680000,16.4730000,101282.840000,0,0,0
8.357,0.0048000,-0.0024000,9.7969000,0.0153000,0.0076000,0.0076000,-29.6950000,18.8950000,17.0310000,101283.290000,0,0,0
8.367,0.0024000,-0.0036000,9.7933000,0.0153000,0.0076000,0.0076000,-29.5090000,18.8870000,17.1930000,101283.290000,0,0,0
8.377,-0.0012000,-0.0036000,9.7933000,0.0076000,0.0076000,0.0076000,-29.4440000,18.7440000,17.4360000,101280.390000,0,0,0
8.387,-0.0036000,-0.0036000,9.7957000,0.0076000,0.0076000,0.0076000,-29.4320000,18.6180000,17.2170000,101280.390000,0,0,0
8.397,-0.0048000,-0.0012000,9.7969000,0.0076000,0.0076000,0.0000000,-29.5640000,18.6800000,17.0860000,101285.270000,0,0,0
8.407,-0.0024000,-0.0012000,9.7957000,0.0076000,0.0153000,0.0000000,-29.4310000,18.6770000,17.3130000,101285.270000,0,0,0
8.417,0.0000000,0.0012000,9.7945000,0.0153000,0.0153000,0.0000000,-29.5600000,19.0810000,17.1850000,101285.620000,0,0,0
8.427,0.0024000,0.0012000,9.7957000,0.0153000,0.0153000,0.0076000,-29.8340000,18.9080000,17.5160000,101285.620000,0,0,0
8.437,0.0036000,0.0012000,9.7945000,0.0153000,0.0076000,0.0076000,-29.8740000,18.9740000,16.9730000,101281.240000,0,0,0
8.447,0.0036000,0.0000000,9.7921000,0.0229000,0.0000000,0.0076000,-29.7330000,18.4730000,16.8280000,101281.240000,0,0,0
8.457,0.0012000,0.0000000,9.7921000,0.0229000,0.0000000,0.0076000,-29.7150000,19.0990000,17.4920000,101286.970000,0,0,0
8.467,0.0000000,0.0000000,9.7933000,0.0305000,0.0000000,0.0153000,-29.7040000,18.7340000,16.2960000,101286.970000,0,0,0
8.477,-0.0012000,0.0000000,9.7957000,0.0305000,0.0076000,0.0153000,-29.4800000,19.0830000,16.8260000,101287.280000,0,0,0
8.487,-0.0024000,0.0000000,9.7957000,0.0229000,0.0076000,0.0153000,-29.7070000,18.8960000,16.6720000,101287.280000,0,0,0
8.497,-0.0024000,0.0000000,9.7945000,0.0076000,0.0076000,0.0076000,-29.6140000,18.9190000,16.9180000,101280.730000,0,0,0
8.507,-0.0012000,0.0000000,9.7933000,0.0076000,0.0000000,0.0076000,-29.6970000,18.8140000,16.6120000,101280.730000,0,0,0
8.517,0.0012000,0.0012000,9.7945000,0.0076000,0.0000000,0.0000000,-29.5880000,18.9020000,16.7900000,101284.600000,0,0,0
8.527,0.0036000,0.0012000,9.7945000,0.0076000,-0.0076000,0.0000000,-29.8410000,18.9300000,16.8620000,101284.600000,0,0,0
8.537,0.0036000,0.0000000,9.7933000,0.0000000,-0.0076000,-0.0076000,-29.7610000,18.8300000,16.8190000,101280.730000,0,0,0
8.547,0.0024000,0.0000000,9.7933000,0.0000000,-0.0076000,-0.0076000,-29.4650000,18.7010000,16.4380000,101280.730000,0,0,0
8.557,0.0024000,-0.0012000,9.7945000,0.0000000,-0.0076000,-0.0076000,-29.7730000,18.9760000,17.1280000,101279.730000,0,0,0
8.567,0.0012000,0.0000000,9.7957000,-0.0076000,0.0000000,0.0000000,-29.5120000,18.8690000,16.7550000,101279.730000,0,0,0
8.577,0.0012000,0.0012000,9.7957000,-0.0076000,0.0000000,0.0076000,-29.6600000,19.0090000,17.2400000,101286.690000,0,0,0
8.587,0.0012000,0.0012000,9.7969000,0.0000000,0.0076000,0.0153000,-29.4130000,18.7590000,16.9940000,101286.690000,0,0,0
8.597,0.0024000,0.0012000,9.7981000,0.0076000,0.0076000,0.0153000,-29.5630000,18.6540000,17.0360000,101286.540000,0,0,0
8.607,0.0024000,0.0024000,9.7981000,0.0229000,0.0153000,0.0153000,-29.5560000,18.8830000,17.3050000,101286.540000,0,0,0
8.617,0.0036000,0.0024000,9.7981000,0.0229000,0.0153000,0.0076000,-29.3390000,18.8790000,17.0620000,101282.380000,0,0,0
8.627,0.0036000,0.0012000,9.7981000,0.0153000,0.0076000,0.0076000,-29.7060000,19.0570000,16.9190000,101282.380000,0,0,0
8.637,0.0036000,0.0012000,9.7981000,0.0153000,0.0000000,0.0000000,-29.6000000,19.0200000,17.1070000,101282.950000,0,0,0
8.647,0.0036000,0.0012000,9.7981000,0.0076000,0.0000000,0.0000000,-29.6300000,18.9240000,17.1100000,101282.950000,0,0,0
8.657,0.0012000,0.0000000,9.7969000,0.0153000,-0.0076000,0.0000000,-29.9710000,19.2380000,17.0200000,101284.860000,0,0,0
8.667,0.0000000,0.0000000,9.7969000,0.0153000,-0.0076000,0.0000000,-29.9660000,18.7670000,16.8700000,101284.860000,0,0,0
8.677,-0.0012000,0.0000000,9.7981000,0.0153000,-0.0076000,0.0000000,-29.7100000,18.9460000,16.9150000,101278.450000,0,0,0
8.687,-0.0024000,0.0000000,9.7993000,0.0076000,-0.0076000,0.0000000,-29.7500000,18.7110000,16.8130000,101278.450000,0,0,0
8.697,-0.0024000,-0.0012000,9.7993000,0.0000000,-0.0076000,0.0000000,-29.5150000,18.8740000,16.7580000,101280.730000,0,0,0
8.707,0.0000000,-0.0024000,9.7993000,0.0000000,0.0000000,0.0000000,-29.6940000,19.1140000,16.3850000,101280.730000,0,0,0
8.717,0.0012000,-0.0036000,9.8005000,-0.0076000,0.0076000,0.0000000,-29.4430000,18.9040000,16.6950000,101282.840000,0,0,0
8.727,0.0024000,-0.0024000,9.7981000,-0.0076000,0.0076000,0.0076000,-29.4730000,18.7720000,16.8650000,101282.840000,0,0,0
8.737,0.0036000,-0.0012000,9.7957000,-0.0076000,0.0000000,0.0076000,-29.2790000,19.0400000,17.4800000,101286.870000,0,0,0
8.747,0.0048000,0.0000000,9.7945000,-0.0076000,0.0000000,0.0076000,-29.4260000,18.6900000,16.9650000,101286.870000,0,0,0
8.757,0.0048000,0.0012000,9.7945000,0.0000000,-0.0076000,0.0076000,-29.5400000,18.8190000,16.8040000,101280.740000,0,0,0
8.767,0.0024000,0.0024000,9.7957000,0.0076000,-0.0153000,0.0000000,-29.3480000,18.8130000,17.1280000,101280.740000,0,0,0
8.777,0.0024000,0.0048000,9.7957000,0.0153000,-0.0076000,0.0000000,-29.3070000,18.9300000,17.0310000,101282.860000,0,0,0
8.787,0.0024000,0.0048000,9.7945000,0.0229000,-0.0076000,0.0000000,-29.2240000,18.9430000,16.7090000,101282.860000,0,0,0
8.797,0.0012000,0.0048000,9.7957000,0.0229000,-0.0076000,-0.0076000,-29.5770000,18.9480000,17.0050000,101284.740000,0,0,0
8.807,0.0012000,0.0024000,9.7957000,0.0229000,-0.0076000,-0.0153000,-29.6910000,19.0280000,16.5660000,101284.740000,0,0,0
8.817,0.0012000,0.0000000,9.7957000,0.0229000,-0.0076000,-0.0153000,-29.6590000,18.8800000,16.7190000,101282.840000,0,0,0
8.827,0.0012000,-0.0012000,9.7957000,0.0229000,0.0000000,-0.0153000,-29.3100000,18.6690000,16.4210000,101282.840000,0,0,0
8.837,0.0000000,-0.0012000,9.7957000,0.0229000,0.0000000,-0.0076000,-29.5320000,19.0980000,16.5640000,101282.410000,0,0,0
8.847,0.0000000,-0.0012000,9.7957000,0.0229000,0.0000000,-0.0076000,-29.3210000,18.8520000,16.7590000,101282.410000,0,0,0
8.857,0.0000000,0.0000000,9.7945000,0.0229000,0.0000000,-0.0076000,-29.3840000,18.5290000,17.4010000,101280.690000,0,0,0
8.867,0.0000000,0.0012000,9.7957000,0.0229000,0.0000000,0.0000000,-29.2530000,18.5910000,17.6010000,101280.690000,0,0,0
8.877,0.0012000,0.0036000,9.7969000,0.0153000,0.0000000,0.0076000,-29.4290000,18.6150000,17.4530000,101280.870000,0,0,0
8.887,0.0012000,0.0024000,9.7969000,0.0153000,0.0000000,0.0153000,-29.4550000,18.4160000,17.3320000,101280.870000,0,0,0
8.897,0.0024000,0.0024000,9.7969000,0.0153000,0.0076000,0.0153000,-29.5210000,18.9840000,17.4850000,101284.260000,0,0,0
8.907,0.0012000,0.0012000,9.7957000,0.0153000,0.0076000,0.0153000,-29.2980000,18.2490000,17.6150000,101284.260000,0,0,0
8.917,0.0000000,0.0012000,9.7957000,0.0153000,0.0000000,0.0153000,-29.4410000,18.5730000,17.2580000,101286.540000,0,0,0
8.927,0.0000000,0.0012000,9.7957000,0.0153000,-0.0076000,0.0076000,-29.3800000,18.8140000,17.4050000,101286.540000,0,0,0
8.937,0.0012000,0.0024000,9.7957000,0.0153000,-0.0076000,0.0076000,-29.5630000,18.8190000,17.7680000,101283.100000,0,0,0
8.947,0.0024000,0.0012000,9.7957000,0.0153000,0.0000000,0.0076000,-29.7470000,18.9440000,17.6670000,101283.100000,0,0,0
8.957,0.0024000,0.0000000,9.7957000,0.0076000,0.0076000,0.0000000,-29.0490000,18.7240000,17.2800000,101282.860000,0,0,0
8.967,0.0036000,-0.0012000,9.7957000,0.0076000,0.0076000,-0.0076000,-29.4110000,18.5460000,17.3580000,101282.860000,0,0,0
8.977,0.0036000,0.0000000,9.7957000,0.0000000,0.0076000,-0.0076000,-29.3350000,18.9830000,17.7770000,101282.750000,0,0,0
8.987,0.0024000,0.0012000,9.7957000,0.0000000,0.0153000,-0.0076000,-29.3920000,18.8600000,17.7320000,101282.750000,0,0,0
8.997,0.0024000,0.0036000,9.7969000,0.0076000,0.0076000,-0.0076000,-29.4400000,19.2880000,17.4910000,101288.020000,0,0,0
9.007,0.0036000,0.0048000,9.7981000,0.0076000,0.0000000,-0.0076000,-29.4730000,18.5930000,17.1110000,101288.020000,0,0,0
9.017,0.0036000,0.0060000,9.7969000,0.0153000,0.0000000,0.0000000,-29.4640000,19.0170000,17.3600000,101280.870000,0,0,0
9.027,0.0036000,0.0036000,9.7969000,0.0153000,0.0000000,0.0076000,-29.7850000,18.5520000,17.4090000,101280.870000,0,0,0
9.037,0.0024000,0.0024000,9.7969000,0.0076000,0.0000000,0.0153000,-29.7180000,19.1980000,17.3300000,101288.200000,0,0,0
9.047,0.0000000,0.0024000,9.7957000,0.0076000,0.0000000,0.0153000,-29.2860000,18.9110000,17.0670000,101288.200000,0,0,0
9.057,-0.0012000,0.0024000,9.7957000,0.0000000,0.0000000,0.0153000,-29.4380000,18.9300000,17.4930000,101280.730000,0,0,0
9.067,-0.0012000,0.0024000,9.7957000,0.0000000,0.0076000,0.0153000,-29.2350000,18.5290000,16.5310000,101280.730000,0,0,0
9.077,-0.0024000,0.0024000,9.7957000,0.0076000,0.0076000,0.0153000,-29.4500000,19.1050000,16.3150000,101280.730000,0,0,0
9.087,-0.0024000,0.0024000,9.7945000,0.0076000,0.0000000,0.0153000,-29.7540000,18.7770000,16.6570000,101280.730000,0,0,0
9.097,-0.0024000,0.0024000,9.7957000,0.0076000,0.0000000,0.0076000,-29.7720000,18.8960000,16.9380000,101282.000000,0,0,0
9.107,-0.0024000,0.0024000,9.7957000,0.0000000,0.0076000,0.0000000,-29.4270000,18.6820000,16.8010000,101282.000000,0,0,0
9.117,-0.0024000,0.0024000,9.7957000,0.0000000,0.0076000,-0.0076000,-29.6160000,18.5550000,17.1100000,101283.220000,0,0,0
9.127,0.0000000,0.0024000,9.7945000,0.0000000,0.0076000,-0.0076000,-29.5070000,18.4210000,17.1760000,101283.220000,0,0,0
9.137,0.0012000,0.0012000,9.7957000,0.0076000,0.0076000,0.0000000,-29.6140000,18.8810000,17.4170000,101281.980000,0,0,0
9.147,0.0024000,0.0000000,9.7945000,0.0076000,0.0076000,0.0076000,-29.4820000,18.6620000,16.3250000,101281.980000,0,0,0
9.157,0.0036000,0.0000000,9.7945000,0.0076000,0.0076000,0.0076000,-29.2120000,18.8100000,16.8300000,101282.380000,0,0,0
9.167,0.0024000,0.0000000,9.7945000,0.0000000,0.0076000,0.0153000,-29.5140000,18.9470000,16.5850000,101282.380000,0,0,0
9.177,0.0024000,0.0012000,9.7945000,0.0000000,0.0153000,0.0153000,-29.4660000,19.1820000,17.6520000,101281.620000,0,0,0
9.187,0.0024000,0.0012000,9.7957000,0.0000000,0.0153000,0.0153000,-29.5540000,18.8130000,17.2140000,101281.620000,0,0,0
9.197,0.0024000,0.0012000,9.7957000,0.0000000,0.0076000,0.0153000,-29.4800000,19.0320000,17.1530000,101279.150000,0,0,0
9.207,0.0024000,0.0000000,9.7969000,0.0000000,0.0076000,0.0153000,-29.6990000,19.1220000,16.9170000,101279.150000,0,0,0
9.217,0.0024000,0.0000000,9.7957000,0.0000000,0.0000000,0.0153000,-29.2740000,18.9640000,17.5130000,101284.600000,0,0,0
9.227,0.0024000,0.0000000,9.7945000,0.0000000,0.0000000,0.0076000,-29.4230000,19.0820000,16.9510000,101284.600000,0,0,0
9.237,0.0024000,-0.0012000,9.7945000,0.0076000,0.0000000,0.0076000,-29.6250000,19.0370000,18.0510000,101282.860000,0,0,0
9.247,0.0024000,0.0000000,9.7957000,0.0153000,-0.0076000,0.0000000,-29.2670000,19.0580000,17.5870000,101282.860000,0,0,0
9.257,0.0012000,0.0012000,9.7957000,0.0153000,-0.0076000,0.0000000,-29.3380000,19.0500000,17.8580000,101279.970000,0,0,0
9.267,0.0000000,0.0000000,9.7945000,0.0153000,-0.0076000,0.0000000,-29.2670000,19.1060000,16.9280000,101279.970000,0,0,0
9.277,-0.0012000,0.0000000,9.7933000,0.0076000,-0.0076000,0.0000000,-29.3830000,18.9910000,17.4490000,101285.710000,0,0,0
9.287,-0.0012000,-0.0012000,9.7921000,0.0153000,-0.0076000,0.0000000,-29.1550000,19.0560000,17.6980000,101285.710000,0,0,0
9.297,0.0012000,0.0000000,9.7909000,0.0153000,-0.0076000,0.0000000,-29.1770000,19.1180000,17.8600000,101281.440000,0,0,0
9.307,0.0012000,0.0012000,9.7909000,0.0153000,-0.0076000,0.0000000,-29.2810000,18.7990000,17.1650000,101281.440000,0,0,0
9.317,0.0012000,0.0024000,9.7921000,0.0153000,-0.0076000,0.0000000,-29.4930000,19.0260000,17.0120000,101282.000000,0,0,0
9.327,0.0012000,0.0024000,9.7945000,0.0153000,-0.0076000,0.0000000,-29.4830000,18.8780000,16.8020000,101282.000000,0,0,0
9.337,0.0000000,0.0036000,9.7945000,0.0153000,-0.0076000,0.0000000,-29.6910000,19.1160000,16.8900000,101285.380000,0,0,0
9.347,0.0000000,0.0024000,9.7945000,0.0153000,-0.0076000,0.0000000,-29.2530000,18.8340000,16.9150000,101285.380000,0,0,0
9.357,0.0000000,0.0012000,9.7957000,0.0153000,-0.0076000,-0.0076000,-29.1920000,18.8170000,17.2090000,101280.730000,0,0,0
9.367,0.0000000,0.0000000,9.7981000,0.0153000,-0.0076000,-0.0076000,-29.3560000,18.7380000,16.9230000,101280.730000,0,0,0
9.377,0.0024000,0.0000000,9.7981000,0.0153000,-0.0076000,-0.0153000,-29.4690000,19.1140000,17.0200000,101281.920000,0,0,0
9.387,0.0048000,0.0000000,9.7957000,0.0153000,0.0000000,-0.0076000,-29.6370000,18.7860000,16.7930000,101281.920000,0,0,0
9.397,0.0060000,0.0000000,9.7945000,0.0229000,0.0076000,-0.0076000,-29.1970000,18.6860000,16.7850000,101285.320000,0,0,0
9.407,0.0072000,0.0012000,9.7957000,0.0305000,0.0076000,0.0000000,-29.6980000,18.9070000,16.6400000,101285.320000,0,0,0
9.417,0.0060000,0.0000000,9.7957000,0.0305000,0.0076000,0.0076000,-29.5910000,18.8550000,17.4830000,101284.970000,0,0,0
9.427,0.0036000,-0.0024000,9.7945000,0.0305000,0.0076000,0.0153000,-29.3560000,18.8470000,16.8360000,101284.970000,0,0,0
9.437,0.0000000,-0.0024000,9.7933000,0.0305000,0.0000000,0.0153000,-29.7300000,19.1620000,17.6730000,101285.050000,0,0,0
9.447,-0.0024000,-0.0024000,9.7957000,0.0305000,-0.0076000,0.0153000,-29.7470000,18.8640000,17.0260000,101285.050000,0,0,0
9.457,-0.0048000,-0.0024000,9.7969000,0.0229000,-0.0076000,0.0076000,-29.5480000,19.1090000,16.4050000,101284.620000,0,0,0
9.467,-0.0036000,-0.0024000,9.7957000,0.0153000,0.0000000,0.0076000,-29.4420000,18.9470000,17.0020000,101284.620000,0,0,0
9.477,-0.0024000,-0.0012000,9.7969000,0.0076000,0.0000000,0.0076000,-29.4540000,18.6610000,17.5700000,101282.780000,0,0,0
9.487,0.0012000,0.0000000,9.7969000,0.0153000,0.0076000,0.0076000,-29.4050000,18.8760000,17.0630000,101282.780000,0,0,0
9.497,0.0036000,0.0024000,9.7981000,0.0153000,0.0076000,0.0000000,-29.4130000,18.9960000,17.1360000,101283.950000,0,0,0
9.507,0.0036000,0.0024000,9.7969000,0.0153000,0.0153000,0.0000000,-29.5100000,18.6420000,17.5400000,101283.950000,0,0,0
9.517,0.0024000,0.0024000,9.7957000,0.0229000,0.0076000,0.0000000,-29.4340000,18.8480000,16.8940000,101285.440000,0,0,0
9.527,0.0012000,0.0012000,9.7945000,0.0229000,0.0076000,0.0000000,-29.2300000,18.8580000,16.9780000,101285.440000,0,0,0
9.537,-0.0012000,0.0012000,9.7957000,0.0153000,0.0076000,0.0076000,-29.4330000,19.1380000,17.1870000,101280.980000,0,0,0
9.547,-0.0024000,0.0000000,9.7969000,0.0153000,0.0076000,0.0000000,-29.3340000,18.5960000,17.2290000,101280.980000,0,0,0
9.557,-0.0024000,0.0000000,9.7981000,0.0153000,0.0076000,0.0076000,-29.1920000,18.8800000,17.5510000,101282.410000,0,0,0
9.567,0.0000000,-0.0012000,9.8005000,0.0076000,0.0076000,0.0076000,-29.5830000,18.6620000,17.2650000,101282.410000,0,0,0
9.577,0.0024000,0.0000000,9.8029000,0.0000000,0.0076000,0.0076000,-29.3960000,18.5830000,17.6850000,101285.170000,0,0,0
9.587,0.0036000,0.0000000,9.8017000,0.0000000,0.0076000,0.0076000,-29.2200000,18.5490000,17.3170000,101285.170000,0,0,0
9.597,0.0048000,0.0012000,9.7993000,0.0076000,0.0153000,0.0000000,-29.3830000,18.7690000,17.2100000,101286.550000,0,0,0
9.607,0.0048000,0.0012000,9.7993000,0.0076000,0.0153000,0.0000000,-29.4450000,18.6410000,17.3240000,101286.550000,0,0,0
9.617,0.0024000,0.0024000,9.8017000,0.0000000,0.0153000,0.0076000,-29.5360000,18.8520000,17.2050000,101282.930000,0,0,0
9.627,0.0000000,0.0024000,9.8017000,0.0000000,0.0153000,0.0076000,-29.5130000,18.6830000,16.4030000,101282.930000,0,0,0
9.637,-0.0012000,0.0024000,9.8005000,0.0000000,0.0153000,0.0153000,-29.2650000,18.7210000,17.4090000,101286.450000,0,0,0
9.647,0.0000000,0.0024000,9.8005000,0.0076000,0.0153000,0.0153000,-29.3290000,18.4630000,17.2430000,101286.450000,0,0,0
9.657,0.0012000,0.0024000,9.8005000,0.0153000,0.0153000,0.0076000,-29.3140000,18.9170000,17.4870000,101280.960000,0,0,0
9.667,0.0036000,0.0012000,9.8005000,0.0076000,0.0153000,0.0000000,-29.3160000,18.6040000,16.8990000,101280.960000,0,0,0
9.677,0.0060000,0.0024000,9.8005000,0.0076000,0.0076000,0.0000000,-29.3770000,18.6220000,16.9520000,101280.730000,0,0,0
9.687,0.0072000,0.0024000,9.8017000,0.0076000,0.0000000,0.0000000,-29.3110000,18.7620000,16.5620000,101280.730000,0,0,0
9.697,0.0084000,0.0012000,9.8041000,0.0153000,-0.0076000,0.0000000,-29.5280000,18.7170000,16.4350000,101281.440000,0,0,0
9.707,0.0072000,0.0012000,9.8053000,0.0153000,-0.0076000,0.0000000,-29.7680000,18.4540000,16.4780000,101281.440000,0,0,0
9.717,0.0036000,-0.0012000,9.8041000,0.0076000,0.0000000,0.0000000,-29.4450000,18.4490000,16.2110000,101284.770000,0,0,0
9.727,0.0012000,-0.0024000,9.8029000,0.0076000,-0.0076000,0.0000000,-29.4530000,18.6130000,16.4160000,101284.770000,0,0,0
9.737,-0.0012000,-0.0024000,9.8029000,0.0153000,-0.0076000,0.0076000,-29.3180000,18.9570000,16.6320000,101282.880000,0,0,0
9.747,-0.0024000,-0.0024000,9.8029000,0.0153000,0.0000000,0.0076000,-29.2580000,18.4760000,16.4070000,101282.880000,0,0,0
9.757,-0.0024000,-0.0012000,9.8005000,0.0153000,-0.0076000,0.0076000,-29.5350000,18.6960000,16.6980000,101280.980000,0,0,0
9.767,-0.0012000,0.0000000,9.8005000,0.0229000,-0.0076000,0.0076000,-29.5300000,18.4700000,15.6260000,101280.980000,0,0,0
9.777,0.0012000,-0.0012000,9.8017000,0.0153000,-0.0153000,0.0153000,-29.4530000,18.8710000,16.4660000,101283.070000,0,0,0
9.787,0.0012000,-0.0012000,9.8017000,0.0153000,-0.0076000,0.0153000,-29.3990000,18.2930000,17.1880000,101283.070000,0,0,0
9.797,0.0000000,-0.0012000,9.8005000,0.0153000,-0.0076000,0.0153000,-29.6290000,18.6800000,17.0640000,101281.620000,0,0,0
9.807,0.0000000,0.0000000,9.8005000,0.0153000,0.0000000,0.0153000,-29.2470000,18.3500000,16.8500000,101281.620000,0,0,0
9.817,-0.0012000,0.0000000,9.8005000,0.0229000,0.0000000,0.0153000,-29.7460000,18.4910000,16.8020000,101282.780000,0,0,0
9.827,0.0000000,-0.0012000,9.8005000,0.0229000,0.0076000,0.0153000,-29.1220000,18.3980000,16.7600000,101282.780000,0,0,0
9.837,0.0024000,-0.0012000,9.7993000,0.0229000,0.0076000,0.0153000,-29.2800000,18.7860000,17.3850000,101280.630000,0,0,0
9.847,0.0060000,-0.0024000,9.7993000,0.0229000,0.0076000,0.0076000,-29.4500000,18.3560000,17.2480000,101280.630000,0,0,0
9.857,0.0072000,-0.0024000,9.8005000,0.0153000,0.0076000,0.0076000,-29.3690000,18.8180000,17.2200000,101286.550000,0,0,0
9.867,0.0072000,-0.0024000,9.8017000,0.0076000,0.0000000,0.0076000,-29.3060000,18.4000000,17.1430000,101286.550000,0,0,0
9.877,0.0060000,-0.0024000,9.8029000,0.0076000,-0.0076000,0.0000000,-29.3140000,18.8580000,17.5630000,101282.840000,0,0,0
9.887,0.0048000,-0.0012000,9.8041000,0.0076000,-0.0076000,0.0000000,-29.3330000,18.5240000,17.1210000,101282.840000,0,0,0
9.897,0.0036000,0.0000000,9.8041000,0.0076000,-0.0076000,-0.0153000,-29.5700000,18.8240000,16.5280000,101284.860000,0,0,0
9.907,0.0036000,0.0000000,9.8041000,0.0000000,-0.0076000,-0.0153000,-29.1070000,18.6140000,16.7720000,101284.860000,0,0,0
9.917,0.0036000,0.0000000,9.8029000,-0.0076000,0.0000000,-0.0229000,-29.3250000,18.7410000,17.3710000,101284.320000,0,0,0
9.927,0.0048000,0.0012000,9.8017000,0.0000000,0.0000000,-0.0153000,-29.2830000,18.3510000,16.9920000,101284.320000,0,0,0
9.937,0.0060000,0.0012000,9.8017000,-0.0076000,0.0000000,-0.0076000,-29.3440000,18.5630000,17.3370000,101285.210000,0,0,0
9.947,0.0060000,0.0000000,9.8005000,0.0000000,0.0076000,0.0000000,-29.2950000,18.3610000,16.7170000,101285.210000,0,0,0
9.957,0.0048000,0.0000000,9.8005000,0.0076000,0.0000000,0.0000000,-29.3610000,18.7470000,16.6550000,101282.950000,0,0,0
9.967,0.0048000,0.0000000,9.8029000,0.0076000,0.0000000,0.0000000,-29.5470000,18.7050000,16.9160000,101282.950000,0,0,0
9.977,0.0048000,0.0012000,9.8041000,0.0076000,0.0000000,0.0000000,-29.5400000,18.7760000,17.5460000,101282.950000,0,0,0
9.987,0.0036000,0.0036000,9.8053000,0.0153000,0.0076000,0.0000000,-29.3790000,18.5990000,17.3180000,101282.950000,0,0,0
9.997,0.0024000,0.0036000,9.8053000,0.0076000,0.0076000,0.0000000,-29.5410000,18.4580000,17.0720000,101284.950000,0,0,0
10.007,0.0024000,0.0036000,9.8041000,0.0076000,0.0153000,0.0000000,-29.1620000,18.4370000,16.8600000,101284.950000,0,0,0
10.017,0.0024000,0.0036000,9.8029000,0.0076000,0.0153000,-0.0076000,-29.2130000,18.4190000,17.2530000,101280.030000,0,0,0
10.027,0.0012000,0.0036000,9.8017000,0.0076000,0.0153000,-0.0076000,-29.1620000,18.5080000,17.7140000,101280.030000,0,0,0
10.037,0.0000000,0.0012000,9.8017000,0.0076000,0.0076000,-0.0076000,-29.6020000,18.5860000,18.0460000,101282.860000,0,0,0
10.047,0.0000000,-0.0012000,9.8017000,0.0153000,0.0076000,-0.0076000,-29.2480000,18.5150000,17.5970000,101282.860000,0,0,0
10.057,-0.0012000,-0.0012000,9.8017000,0.0076000,0.0076000,-0.0076000,-29.3250000,18.8910000,17.6570000,101280.730000,0,0,0
10.067,-0.0012000,-0.0012000,9.8017000,0.0076000,0.0076000,-0.0076000,-29.4420000,18.7520000,16.8460000,101280.730000,0,0,0
10.077,-0.0012000,-0.0012000,9.8017000,0.0076000,0.0076000,0.0000000,-29.6390000,18.5550000,16.5380000,101283.100000,0,0,0
10.087,0.0012000,-0.0012000,9.8005000,0.0076000,0.0076000,0.0000000,-29.1120000,18.7300000,17.3070000,101283.100000,0,0,0
10.097,0.0012000,-0.0012000,9.7993000,0.0076000,0.0153000,0.0000000,-29.1990000,18.4980000,17.3930000,101284.540000,0,0,0
10.107,0.0024000,0.0000000,9.7969000,0.0076000,0.0153000,0.0000000,-29.3800000,18.3770000,16.7640000,101284.540000,0,0,0
10.117,0.0024000,0.0000000,9.7957000,0.0153000,0.0153000,-0.0076000,-29.2340000,18.8460000,17.7340000,101284.950000,0,0,0
10.127,0.0024000,0.0000000,9.7957000,0.0229000,0.0076000,-0.0076000,-29.4460000,18.8200000,16.9590000,101284.950000,0,0,0
10.137,0.0012000,0.0000000,9.7969000,0.0229000,0.0000000,-0.0076000,-29.4890000,18.7270000,16.6080000,101284.880000,0,0,0
10.147,0.0000000,-0.0012000,9.7969000,0.0229000,0.0000000,0.0000000,-29.6390000,18.5180000,17.1500000,101284.880000,0,0,0
10.157,0.0000000,-0.0024000,9.7981000,0.0153000,0.0000000,0.0076000,-29.5650000,18.6050000,16.7710000,101282.840000,0,0,0
10.167,0.0000000,-0.0024000,9.7993000,0.0153000,0.0000000,0.0153000,-29.6760000,18.3020000,16.9340000,101282.840000,0,0,0
10.177,0.0000000,-0.0012000,9.8017000,0.0076000,0.0076000,0.0229000,-29.5260000,18.8620000,17.3230000,101286.480000,0,0,0
10.187,0.0000000,0.0000000,9.8029000,0.0076000,0.0076000,0.0229000,-29.5920000,18.5660000,17.1030000,101286.480000,0,0,0
10.197,0.0012000,0.0012000,9.8041000,0.0000000,0.0076000,0.0153000,-29.6500000,18.6720000,16.6090000,101286.970000,0,0,0
10.207,0.0012000,0.0000000,9.8053000,0.0076000,0.0076000,0.0153000,-29.6210000,18.5290000,16.7970000,101286.970000,0,0,0
10.217,0.0012000,-0.0012000,9.8041000,0.0076000,0.0000000,0.0153000,-29.3770000,18.7320000,17.5060000,101284.250000,0,0,0
10.227,0.0000000,-0.0012000,9.8005000,0.0000000,0.0000000,0.0076000,-29.3570000,18.6210000,16.7790000,101284.250000,0,0,0
10.237,0.0000000,-0.0012000,9.7993000,0.0000000,0.0000000,-0.0076000,-29.3100000,18.6910000,17.0890000,101287.410000,0,0,0
10.247,0.0000000,-0.0012000,9.7993000,0.0076000,-0.0305000,-0.5035000,-29.5160000,18.2590000,16.4260000,101287.410000,0,0,0
10.257,0.0000000,-0.0012000,9.7993000,0.0076000,0.0076000,-0.0076000,-29.5370000,18.5920000,16.6870000,101285.180000,0,0,0
10.267,0.0012000,0.0000000,9.7993000,0.0076000,0.0076000,0.0000000,-29.6600000,18.5620000,15.7620000,101285.180000,0,0,0
10.277,0.0036000,0.0024000,9.7993000,0.0076000,0.0076000,0.0076000,-29.2590000,18.4470000,16.9480000,101282.860000,0,0,0
10.287,0.0048000,0.0036000,9.7993000,0.0076000,0.0076000,0.0153000,-29.4390000,18.4450000,16.3840000,101282.860000,0,0,0
10.297,0.0060000,0.0048000,9.8005000,0.0076000,0.0000000,0.0153000,-29.6410000,18.7890000,16.9040000,101282.930000,0,0,0
10.307,0.0048000,0.0060000,9.7993000,0.0076000,0.0000000,0.0229000,-29.4540000,18.4020000,16.6710000,101282.930000,0,0,0
10.317,0.0036000,0.0048000,9.7993000,0.0076000,-0.0076000,0.0153000,-29.4820000,18.4230000,17.2260000,101282.840000,0,0,0
10.327,0.0012000,0.0036000,9.7993000,0.0000000,-0.0076000,0.0153000,-29.6290000,18.2450000,16.8400000,101282.840000,0,0,0
10.337,0.0012000,0.0036000,9.8005000,0.0076000,-0.0076000,0.0076000,-29.4580000,18.5260000,16.7550000,101284.950000,0,0,0
10.347,0.0000000,0.0024000,9.7993000,0.0153000,-0.0076000,0.0076000,-29.3000000,18.1380000,17.0360000,101284.950000,0,0,0
10.357,0.0000000,0.0012000,9.7981000,0.0153000,-0.0076000,0.0076000,-29.2170000,18.5220000,16.4570000,101284.950000,0,0,0
10.367,0.0000000,0.0012000,9.7969000,0.0153000,-0.0076000,0.0076000,-29.5650000,18.3400000,16.4780000,101284.950000,0,0,0
10.377,0.0000000,0.0000000,9.7981000,0.0076000,-0.0076000,0.0000000,-29.6100000,18.5030000,16.8080000,101284.950000,0,0,0
10.387,0.0012000,0.0000000,9.7993000,0.0076000,-0.0076000,0.0000000,-29.3160000,18.2090000,16.2540000,101284.950000,0,0,0
10.397,0.0012000,-0.0012000,9.7993000,0.0000000,0.0000000,0.0000000,-29.5910000,18.2850000,16.6050000,101282.860000,0,0,0
10.407,0.0012000,0.0000000,9.7981000,0.0000000,0.0000000,0.0000000,-29.3170000,18.4530000,16.6480000,101282.860000,0,0,0
10.417,0.0012000,0.0000000,9.7969000,0.0076000,0.0076000,0.0000000,-29.5210000,18.3610000,17.2880000,101284.950000,0,0,0
10.427,0.0012000,0.0012000,9.7957000,0.0076000,0.0153000,0.0000000,-29.4110000,18.3500000,16.7960000,101284.950000,0,0,0
10.437,0.0024000,0.0012000,9.7957000,0.0076000,0.0153000,0.0076000,-29.1720000,18.4530000,16.4900000,101284.560000,0,0,0
10.447,0.0036000,-0.0012000,9.7957000,0.0153000,0.0153000,0.0076000,-29.6930000,18.5510000,16.6980000,101284.560000,0,0,0
10.457,0.0048000,-0.0024000,9.7969000,0.0153000,0.0153000,0.0153000,-29.3460000,18.4650000,17.3020000,101278.630000,0,0,0
10.467,0.0048000,-0.0012000,9.7969000,0.0153000,0.0229000,0.0153000,-29.4120000,18.7820000,17.4750000,101278.630000,0,0,0
10.477,0.0048000,0.0000000,9.7969000,0.0153000,0.0229000,0.0153000,-29.4420000,18.5270000,17.0140000,101286.540000,0,0,0
10.487,0.0024000,0.0012000,9.7981000,0.0076000,0.0076000,0.0153000,-29.4100000,18.7330000,16.6140000,101286.540000,0,0,0
10.497,0.0024000,0.0012000,9.7981000,0.0153000,0.0000000,0.0153000,-29.2810000,18.4820000,16.6570000,101280.160000,0,0,0
10.507,0.0012000,0.0000000,9.7981000,0.0153000,-0.0076000,0.0076000,-29.4890000,18.6390000,16.7820000,101280.160000,0,0,0
10.517,0.0000000,0.0000000,9.7981000,0.0153000,-0.0153000,0.0000000,-29.3930000,18.4340000,16.7370000,101280.160000,0,0,0
10.527,0.0000000,0.0000000,9.7981000,0.0076000,-0.0153000,0.0000000,-29.3200000,18.5290000,17.0290000,101280.160000,0,0,0
10.537,0.0012000,-0.0012000,9.7993000,0.0076000,-0.0076000,0.0000000,-29.1990000,18.3550000,17.0240000,101281.090000,0,0,0
10.547,0.0024000,-0.0012000,9.8017000,0.0000000,-0.0076000,0.0076000,-29.2830000,18.5870000,16.5810000,101281.090000,0,0,0
10.557,0.0024000,-0.0012000,9.8041000,0.0000000,0.0000000,0.0076000,-29.6820000,18.8060000,16.8300000,101284.540000,0,0,0
10.567,0.0024000,-0.0012000,9.8041000,0.0000000,0.0000000,0.0076000,-29.4570000,18.9260000,16.5890000,101284.540000,0,0,0
10.577,0.0024000,-0.0012000,9.8029000,0.0076000,0.0000000,0.0076000,-29.4270000,18.2900000,16.3560000,101282.840000,0,0,0
10.587,0.0012000,-0.0012000,9.8017000,0.0153000,0.0000000,0.0076000,-29.3050000,18.4720000,16.3430000,101282.840000,0,0,0
10.597,0.0012000,-0.0012000,9.8005000,0.0153000,0.0000000,0.0076000,-29.0030000,18.5730000,16.8650000,101278.380000,0,0,0
10.607,0.0012000,-0.0024000,9.8005000,0.0153000,0.0076000,0.0076000,-29.1330000,18.3710000,17.0210000,101278.380000,0,0,0
10.617,0.0000000,-0.0036000,9.8005000,0.0229000,0.0076000,0.0000000,-29.2690000,18.4920000,16.3150000,101280.570000,0,0,0
10.627,0.0000000,-0.0036000,9.8017000,0.0229000,0.0076000,0.0000000,-29.1830000,18.3200000,16.5010000,101280.570000,0,0,0
10.637,-0.0012000,-0.0036000,9.8017000,0.0229000,0.0076000,0.0000000,-29.4360000,18.4120000,16.7000000,101285.180000,0,0,0
10.647,-0.0012000,-0.0024000,9.7993000,0.0229000,0.0076000,0.0000000,-29.4830000,18.3500000,16.3270000,101285.180000,0,0,0
10.657,-0.0012000,-0.0024000,9.7981000,0.0229000,0.0000000,0.0000000,-29.5300000,18.3460000,16.5320000,101281.090000,0,0,0
10.667,0.0000000,-0.0012000,9.7981000,0.0153000,0.0000000,0.0000000,-29.4600000,18.1710000,16.7190000,101281.090000,0,0,0
10.677,0.0000000,-0.0012000,9.7969000,0.0153000,0.0076000,0.0076000,-29.3980000,18.0750000,16.2290000,101282.500000,0,0,0
10.687,0.0012000,-0.0012000,9.7969000,0.0153000,0.0000000,0.0076000,-28.9950000,18.4800000,16.2570000,101282.500000,0,0,0
10.697,0.0000000,0.0000000,9.7957000,0.0153000,0.0000000,0.0076000,-29.2890000,18.5450000,16.0790000,101283.070000,0,0,0
10.707,-0.0012000,0.0024000,9.7957000,0.0153000,0.0000000,0.0076000,-29.3150000,18.1510000,16.4120000,101283.070000,0,0,0
10.717,-0.0012000,0.0024000,9.7957000,0.0076000,0.0000000,0.0076000,-29.3850000,18.2470000,15.8840000,101282.840000,0,0,0
10.727,0.0012000,0.0024000,9.7969000,0.0076000,0.0076000,0.0076000,-29.1660000,18.8910000,16.2990000,101282.840000,0,0,0
10.737,0.0024000,0.0024000,9.7981000,0.0076000,0.0076000,0.0076000,-29.5700000,18.4500000,16.7200000,101285.060000,0,0,0
10.747,0.0048000,0.0012000,9.7981000,0.0000000,0.0076000,0.0076000,-29.3080000,18.2610000,16.9310000,101285.060000,0,0,0
10.757,0.0036000,0.0012000,9.7981000,0.0076000,0.0076000,0.0000000,-29.2970000,18.3570000,16.0350000,101280.050000,0,0,0
10.767,0.0036000,0.0012000,9.7981000,0.0076000,0.0076000,0.0000000,-29.5120000,18.4790000,16.8750000,101280.050000,0,0,0
10.777,0.0024000,0.0000000,9.7969000,0.0076000,0.0076000,0.0000000,-29.3990000,18.4990000,16.6550000,101279.640000,0,0,0
10.787,0.0012000,-0.0012000,9.7969000,0.0076000,0.0076000,0.0000000,-29.3380000,18.4880000,16.5020000,101279.640000,0,0,0
10.797,0.0000000,0.0000000,9.7981000,0.0153000,0.0076000,-0.0076000,-29.2710000,18.4270000,16.6090000,101286.550000,0,0,0
10.807,0.0000000,0.0012000,9.7981000,0.0153000,0.0000000,-0.0076000,-29.5090000,18.4190000,15.8310000,101286.550000,0,0,0
10.817,0.0000000,0.0024000,9.7993000,0.0153000,0.0076000,0.0000000,-29.1470000,18.3060000,16.5960000,101286.770000,0,0,0
10.827,0.0000000,0.0024000,9.7993000,0.0153000,0.0076000,0.0076000,-29.6210000,18.3690000,16.6550000,101286.770000,0,0,0
10.837,0.0012000,0.0012000,9.8005000,0.0229000,0.0000000,0.0076000,-29.3640000,18.2390000,16.5950000,101282.550000,0,0,0
10.847,0.0012000,0.0000000,9.8005000,0.0229000,0.0000000,0.0076000,-29.5930000,18.2680000,16.4060000,101282.550000,0,0,0
10.857,0.0012000,0.0000000,9.8005000,0.0229000,-0.0076000,0.0076000,-29.3990000,18.5350000,16.6350000,101280.660000,0,0,0
10.867,0.0012000,0.0000000,9.8005000,0.0153000,-0.0076000,0.0076000,-29.5980000,18.4650000,16.2520000,101280.660000,0,0,0
10.877,0.0012000,0.0012000,9.8005000,0.0076000,-0.0076000,0.0153000,-29.2640000,18.2380000,16.6720000,101278.490000,0,0,0
10.887,0.0024000,0.0000000,9.7993000,0.0076000,-0.0076000,0.0076000,-29.6580000,18.3970000,17.0610000,101278.490000,0,0,0
10.897,0.0024000,0.0000000,9.7993000,0.0000000,0.0000000,0.0076000,-29.5550000,18.2550000,17.4000000,101282.790000,0,0,0
