time  , accel_x   , accel_y   , accel_z  , gyro_x    , gyro_y     , gyro_z    , mag_x      , mag_y      , mag_z    , baro         , gps_lat, gps_lon, gps_alt
 0.790, -0.0126000, -0.0407000, 9.6672000, 28.9001000,  33.8669000, 37.0712000, -37.7380000, -13.2340000, 8.1040000, 101215.300000,       0,       0,       0
 0.800, -0.0006000, 0.0227000 , 9.6696000, 29.2587000,  33.4625000, 36.4304000, -37.5260000, -13.2010000, 7.4990000, 101215.300000,       0,       0,       0
 0.810, -0.0006000, 0.0514000 , 9.6696000, 29.4266000,  33.2413000, 35.9879000, -38.0130000, -12.9220000, 7.6390000, 101219.050000,       0,       0,       0
 0.820, -0.0066000, 0.0610000 , 9.6684000, 29.5181000,  33.0048000, 35.5988000, -37.6560000, -13.1600000, 7.6510000, 101219.050000,       0,       0,       0
 0.830, -0.0221000, 0.0419000 , 9.6684000, 29.5639000,  32.7072000, 35.3699000, -38.0270000, -12.6990000, 7.4360000, 101218.850000,       0,       0,       0
 0.840, -0.0437000, -0.0156000, 9.6696000, 29.6097000,  32.2952000, 35.3394000, -37.7090000, -12.9040000, 7.8290000, 101218.850000,       0,       0,       0
 0.850, -0.0520000, -0.1053000, 9.6708000, 29.8233000,  31.7841000, 35.3470000, -37.9540000, -13.0210000, 8.7320000, 101219.160000,       0,       0,       0
 0.860, -0.0305000, -0.1914000, 9.6696000, 30.4565000,  31.2347000, 35.0189000, -37.7950000, -12.9550000, 8.1700000, 101219.160000,       0,       0,       0
 0.870, 0.0197000 , -0.2273000, 9.6696000, 31.5399000,  30.7693000, 33.9203000, -38.1760000, -13.1150000, 8.0470000, 101220.460000,       0,       0,       0
 0.880, 0.0748000 , -0.1914000, 9.6732000, 32.7530000,  30.5939000, 32.0511000, -37.7930000, -12.9810000, 8.2740000, 101220.460000,       0,       0,       0
 0.890, 0.1083000 , -0.0969000, 9.6804000, 33.6380000,  30.8685000, 30.0217000, -38.3540000, -12.8480000, 8.1870000, 101218.530000,       0,       0,       0
 0.900, 0.0987000 , 0.0096000 , 9.6899000, 33.9127000,  31.4713000, 28.7247000, -37.6440000, -12.9540000, 7.5080000, 101218.530000,       0,       0,       0
 0.910, 0.0628000 , 0.0897000 , 9.6971000, 33.4549000,  32.2113000, 28.6789000, -38.2790000, -12.9030000, 7.7180000, 101220.930000,       0,       0,       0
 0.920, 0.0185000 , 0.1352000 , 9.6959000, 32.4631000,  32.8979000, 29.7165000, -38.0780000, -12.9020000, 8.1070000, 101220.930000,       0,       0,       0
 0.930, -0.0221000, 0.1495000 , 9.6864000, 31.2881000,  33.2413000, 31.2729000, -37.9620000, -12.5340000, 7.8590000, 101219.260000,       0,       0,       0
 0.940, -0.0520000, 0.1400000 , 9.6732000, 30.2505000,  33.1116000, 32.9056000, -37.8670000, -12.7530000, 7.7550000, 101219.260000,       0,       0,       0
 0.950, -0.0688000, 0.1029000 , 9.6636000, 29.4876000,  32.6080000, 34.4009000, -38.1540000, -12.9210000, 7.0380000, 101221.020000,       0,       0,       0
 0.960, -0.0664000, 0.0479000 , 9.6624000, 29.1290000,  31.8832000, 35.6140000, -37.7500000, -12.5290000, 7.2960000, 101221.020000,       0,       0,       0
 0.970, -0.0389000, -0.0072000, 9.6672000, 29.1672000,  31.1356000, 36.3235000, -37.8310000, -12.1780000, 7.6880000, 101222.250000,       0,       0,       0
 0.980, 0.0054000 , -0.0514000, 9.6744000, 29.4647000,  30.6015000, 36.3998000, -37.8400000, -12.5040000, 8.1670000, 101222.250000,       0,       0,       0
 0.990, 0.0484000 , -0.0742000, 9.6792000, 29.7928000,  30.3802000, 35.9650000, -38.2400000, -12.7340000, 7.5760000, 101218.380000,       0,       0,       0
 1.000, 0.0807000 , -0.0718000, 9.6828000, 29.9835000,  30.5405000, 35.3317000, -38.1400000, -12.8410000, 7.4800000, 101218.380000,       0,       0,       0
 1.010, 0.0939000 , -0.0455000, 9.6875000, 29.9454000,  31.0822000, 34.8740000, -37.9550000, -12.7560000, 7.4900000, 101220.840000,       0,       0,       0
 1.020, 0.0843000 , -0.0120000, 9.6911000, 29.5410000,  31.9519000, 34.7061000, -38.2220000, -12.6510000, 7.0980000, 101220.840000,       0,       0,       0
 1.030, 0.0712000 , 0.0024000 , 9.6887000, 28.8849000,  32.6614000, 34.8358000, -38.1550000, -12.8500000, 7.8960000, 101219.340000,       0,       0,       0
 1.040, 0.0473000 , -0.0072000, 9.6828000, 28.4042000,  32.9437000, 35.2020000, -38.1500000, -12.7590000, 7.7390000, 101219.340000,       0,       0,       0
 1.050, 0.0305000 , -0.0311000, 9.6756000, 28.2822000,  32.9590000, 35.5682000, -38.3610000, -12.7120000, 7.6600000, 101222.610000,       0,       0,       0
 1.060, 0.0245000 , -0.0598000, 9.6732000, 28.4119000,  32.6538000, 35.6827000, -38.0110000, -12.6540000, 7.3130000, 101222.610000,       0,       0,       0
 1.070, 0.0365000 , -0.0861000, 9.6744000, 28.5797000,  32.3257000, 35.6140000, -38.2240000, -12.6750000, 7.1860000, 101219.140000,       0,       0,       0
 1.080, 0.0592000 , -0.1077000, 9.6792000, 28.6636000,  32.3029000, 35.5606000, -38.1210000, -12.6860000, 7.7800000, 101219.140000,       0,       0,       0
 1.090, 0.0819000 , -0.1184000, 9.6875000, 28.6102000,  32.6767000, 35.6903000, -37.9460000, -12.6100000, 7.9430000, 101220.620000,       0,       0,       0
 1.100, 0.0915000 , -0.1160000, 9.6935000, 28.3432000,  33.3252000, 36.0413000, -38.3300000, -12.6020000, 7.7600000, 101220.620000,       0,       0,       0
 1.110, 0.0843000 , -0.1077000, 9.6935000, 27.9541000,  33.9890000, 36.5524000, -38.4110000, -12.6050000, 8.0060000, 101220.440000,       0,       0,       0
 1.120, 0.0628000 , -0.0957000, 9.6875000, 27.5879000,  34.4543000, 37.0789000, -37.9300000, -12.7530000, 7.5330000, 101220.440000,       0,       0,       0
 1.130, 0.0353000 , -0.0802000, 9.6804000, 27.3285000,  34.5840000, 37.4908000, -37.8150000, -13.1750000, 8.1450000, 101218.660000,       0,       0,       0
 1.140, 0.0078000 , -0.0646000, 9.6720000, 27.2446000,  34.3552000, 37.6816000, -37.9640000, -12.7940000, 7.8560000, 101218.660000,       0,       0,       0
 1.150, -0.0102000, -0.0502000, 9.6660000, 27.3666000,  33.8821000, 37.6587000, -38.1990000, -12.7650000, 7.9370000, 101220.990000,       0,       0,       0
 1.160, -0.0054000, -0.0156000, 9.6588000, 27.9465000,  33.0200000, 37.2391000, -38.2990000, -13.0380000, 7.5090000, 101220.990000,       0,       0,       0
 1.170, 0.0102000 , 0.0096000 , 9.6636000, 28.3737000,  32.5928000, 36.8500000, -38.3190000, -13.0640000, 7.5740000, 101218.730000,       0,       0,       0
 1.180, 0.0317000 , 0.0239000 , 9.6732000, 28.6102000,  32.4402000, 36.5601000, -37.9290000, -12.9020000, 7.8750000, 101218.730000,       0,       0,       0
 1.190, 0.0473000 , 0.0227000 , 9.6792000, 28.6331000,  32.5241000, 36.3770000, -38.3500000, -12.9600000, 7.9920000, 101219.090000,       0,       0,       0
 1.200, 0.0520000 , 0.0060000 , 9.6816000, 28.5568000,  32.7835000, 36.2473000, -37.7450000, -12.6390000, 8.0190000, 101219.090000,       0,       0,       0
 1.210, 0.0449000 , -0.0215000, 9.6804000, 28.5492000,  33.0048000, 36.0489000, -37.9460000, -13.0050000, 7.9850000, 101219.260000,       0,       0,       0
 1.220, 0.0341000 , -0.0514000, 9.6720000, 28.7247000,  33.0505000, 35.6674000, -38.0680000, -12.8770000, 8.1400000, 101219.260000,       0,       0,       0
 1.230, 0.0269000 , -0.0754000, 9.6660000, 29.1061000,  32.9666000, 35.1257000, -38.1040000, -12.8190000, 8.1860000, 101219.430000,       0,       0,       0
 1.240, 0.0269000 , -0.0921000, 9.6636000, 29.5944000,  32.8140000, 34.5840000, -38.2060000, -13.0880000, 7.9090000, 101219.430000,       0,       0,       0
 1.250, 0.0317000 , -0.0981000, 9.6672000, 29.9988000,  32.7072000, 34.1949000, -38.2590000, -13.0120000, 8.2270000, 101219.340000,       0,       0,       0
 1.260, 0.0389000 , -0.0957000, 9.6732000, 30.2048000,  32.7530000, 34.0881000, -38.0240000, -13.1270000, 8.1240000, 101219.340000,       0,       0,       0
 1.270, 0.0484000 , -0.0921000, 9.6780000, 30.1971000,  32.9819000, 34.2712000, -38.0790000, -13.2760000, 8.2510000, 101220.840000,       0,       0,       0
 1.280, 0.0496000 , -0.0897000, 9.6816000, 30.0217000,  33.3481000, 34.6527000, -38.0960000, -13.1060000, 8.3630000, 101220.840000,       0,       0,       0
 1.290, 0.0437000 , -0.0825000, 9.6828000, 29.7546000,  33.7143000, 35.0494000, -38.2270000, -12.8070000, 8.3140000, 101219.260000,       0,       0,       0
 1.300, 0.0317000 , -0.0670000, 9.6816000, 29.4495000,  34.0118000, 35.3851000, -38.0060000, -12.8430000, 7.9790000, 101219.260000,       0,       0,       0
 1.310, 0.0173000 , -0.0526000, 9.6792000, 29.1672000,  34.1110000, 35.6216000, -38.1350000, -12.8570000, 8.2690000, 101220.900000,       0,       0,       0
 1.320, 0.0030000 , -0.0467000, 9.6756000, 28.9536000,  33.9813000, 35.8124000, -38.1460000, -13.1640000, 7.6150000, 101220.900000,       0,       0,       0
 1.330, -0.0078000, -0.0514000, 9.6732000, 28.8162000,  33.6990000, 35.9650000, -37.8130000, -13.0450000, 8.1410000, 101218.840000,       0,       0,       0
 1.340, -0.0114000, -0.0634000, 9.6720000, 28.7857000,  33.3023000, 36.0870000, -37.6250000, -12.8480000, 7.5450000, 101218.840000,       0,       0,       0
 1.350, -0.0090000, -0.0802000, 9.6720000, 28.8391000,  32.8674000, 36.2320000, -37.8160000, -13.1340000, 7.9950000, 101218.460000,       0,       0,       0
 1.360, -0.0054000, -0.0981000, 9.6732000, 28.9383000,  32.4631000, 36.4304000, -37.7220000, -13.0100000, 7.4700000, 101218.460000,       0,       0,       0
 1.370, 0.0030000 , -0.1148000, 9.6732000, 29.0756000,  32.1426000, 36.5906000, -37.8840000, -12.9870000, 7.3640000, 101222.550000,       0,       0,       0
 1.380, 0.0126000 , -0.1292000, 9.6720000, 29.3350000,  31.9290000, 36.5677000, -37.8110000, -12.8480000, 7.9460000, 101222.550000,       0,       0,       0
 1.390, 0.0269000 , -0.1316000, 9.6732000, 29.7241000,  31.8222000, 36.2701000, -38.0420000, -12.7650000, 8.0560000, 101222.250000,       0,       0,       0
 1.400, 0.0401000 , -0.1136000, 9.6756000, 30.0446000,  31.8069000, 35.7590000, -37.9450000, -12.8750000, 7.5990000, 101222.250000,       0,       0,       0
 1.410, 0.0473000 , -0.0849000, 9.6780000, 30.1437000,  31.9519000, 35.2402000, -37.8680000, -12.8550000, 8.2980000, 101219.210000,       0,       0,       0
 1.420, 0.0484000 , -0.0586000, 9.6816000, 30.0217000,  32.2189000, 34.9884000, -37.7430000, -12.7160000, 8.2070000, 101219.210000,       0,       0,       0
 1.430, 0.0449000 , -0.0431000, 9.6840000, 29.7623000,  32.5623000, 35.1181000, -37.8930000, -12.9530000, 8.5610000, 101219.410000,       0,       0,       0
 1.440, 0.0425000 , -0.0431000, 9.6828000, 29.4647000,  32.9742000, 35.4919000, -37.8900000, -12.5970000, 7.9440000, 101219.410000,       0,       0,       0
 1.450, 0.0353000 , -0.0538000, 9.6792000, 29.2358000,  33.3099000, 35.8505000, -37.9060000, -12.8580000, 8.3960000, 101220.800000,       0,       0,       0
 1.460, 0.0293000 , -0.0658000, 9.6744000, 29.1595000,  33.4625000, 35.9573000, -37.7860000, -12.8520000, 8.4020000, 101220.800000,       0,       0,       0
 1.470, 0.0173000 , -0.0730000, 9.6708000, 29.2206000,  33.4320000, 35.8429000, -38.1470000, -12.8220000, 7.9900000, 101220.400000,       0,       0,       0
 1.480, 0.0054000 , -0.0778000, 9.6684000, 29.3655000,  33.2336000, 35.6369000, -38.0230000, -12.7240000, 8.1890000, 101220.400000,       0,       0,       0
 1.490, 0.0054000 , -0.0802000, 9.6684000, 29.5715000,  32.9742000, 35.4614000, -37.8770000, -12.6990000, 7.9570000, 101220.900000,       0,       0,       0
 1.500, 0.0126000 , -0.0778000, 9.6720000, 29.7546000,  32.7606000, 35.3241000, -37.7790000, -13.1680000, 7.9950000, 101220.900000,       0,       0,       0
 1.510, 0.0281000 , -0.0754000, 9.6756000, 29.8309000,  32.7148000, 35.2402000, -37.7970000, -13.0930000, 8.1750000, 101220.310000,       0,       0,       0
 1.520, 0.0353000 , -0.0802000, 9.6804000, 29.7699000,  32.8369000, 35.2631000, -37.7750000, -12.9120000, 8.2780000, 101220.310000,       0,       0,       0
 1.530, 0.0353000 , -0.0969000, 9.6828000, 29.6326000,  33.0353000, 35.3851000, -37.5400000, -13.1510000, 8.2330000, 101217.380000,       0,       0,       0
 1.540, 0.0281000 , -0.1172000, 9.6828000, 29.5334000,  33.1879000, 35.5148000, -37.5570000, -13.0170000, 8.3100000, 101217.380000,       0,       0,       0
 1.550, 0.0150000 , -0.1280000, 9.6792000, 29.5639000,  33.2184000, 35.5530000, -37.9820000, -13.1420000, 8.2850000, 101218.210000,       0,       0,       0
 1.560, 0.0042000 , -0.1244000, 9.6744000, 29.7241000,  33.0811000, 35.4309000, -37.8350000, -12.9800000, 7.8890000, 101218.210000,       0,       0,       0
 1.570, 0.0030000 , -0.1017000, 9.6696000, 29.9683000,  32.8064000, 35.1410000, -38.1320000, -12.8760000, 7.8490000, 101220.590000,       0,       0,       0
 1.580, 0.0090000 , -0.0694000, 9.6684000, 30.2200000,  32.5241000, 34.8053000, -38.0440000, -13.0380000, 7.5430000, 101220.590000,       0,       0,       0
 1.590, 0.0150000 , -0.0419000, 9.6708000, 30.3650000,  32.3257000, 34.6222000, -37.8880000, -12.8690000, 7.6270000, 101219.280000,       0,       0,       0
 1.600, 0.0185000 , -0.0287000, 9.6756000, 30.3421000,  32.2952000, 34.6909000, -37.8660000, -12.7950000, 7.3330000, 101219.280000,       0,       0,       0
 1.610, 0.0221000 , -0.0323000, 9.6804000, 30.1743000,  32.3944000, 34.9350000, -37.8960000, -12.7530000, 7.8940000, 101224.060000,       0,       0,       0
 1.620, 0.0221000 , -0.0502000, 9.6828000, 29.9530000,  32.5089000, 35.2325000, -37.8340000, -12.9010000, 7.8990000, 101224.060000,       0,       0,       0
 1.630, 0.0173000 , -0.0754000, 9.6816000, 29.7470000,  32.5623000, 35.4691000, -37.9740000, -13.0340000, 7.7140000, 101220.840000,       0,       0,       0
 1.640, 0.0138000 , -0.0993000, 9.6780000, 29.6249000,  32.4936000, 35.5682000, -37.8320000, -13.3430000, 7.9160000, 101220.840000,       0,       0,       0
 1.650, 0.0161000 , -0.1089000, 9.6732000, 29.6631000,  32.3792000, 35.5301000, -37.9160000, -12.9760000, 8.3060000, 101220.870000,       0,       0,       0
 1.660, 0.0209000 , -0.1065000, 9.6720000, 29.8233000,  32.2876000, 35.4080000, -37.6040000, -12.8340000, 7.3510000, 101220.870000,       0,       0,       0
 1.670, 0.0305000 , -0.0957000, 9.6732000, 29.9911000,  32.2647000, 35.2859000, -37.7060000, -12.8720000, 7.7370000, 101222.480000,       0,       0,       0
 1.680, 0.0389000 , -0.0825000, 9.6768000, 30.0674000,  32.3486000, 35.1868000, -37.5720000, -13.1540000, 7.7510000, 101222.480000,       0,       0,       0
 1.690, 0.0413000 , -0.0694000, 9.6804000, 30.0064000,  32.5546000, 35.1486000, -37.8020000, -12.8830000, 8.3910000, 101219.090000,       0,       0,       0
 1.700, 0.0305000 , -0.0526000, 9.6792000, 29.7623000,  32.8140000, 35.2783000, -37.4240000, -12.9760000, 8.0970000, 101219.090000,       0,       0,       0
 1.710, 0.0197000 , -0.0514000, 9.6744000, 29.6173000,  32.8751000, 35.4538000, -38.0070000, -12.9880000, 7.3600000, 101218.700000,       0,       0,       0
 1.720, 0.0078000 , -0.0538000, 9.6708000, 29.5334000,  32.8064000, 35.6445000, -38.0790000, -13.3190000, 7.7140000, 101218.700000,       0,       0,       0
 1.730, 0.0054000 , -0.0586000, 9.6696000, 29.5486000,  32.6233000, 35.7666000, -37.7490000, -13.1370000, 7.4640000, 101217.380000,       0,       0,       0
 1.740, 0.0161000 , -0.0658000, 9.6696000, 29.6631000,  32.4249000, 35.7590000, -38.0040000, -13.0430000, 7.6390000, 101217.380000,       0,       0,       0
 1.750, 0.0305000 , -0.0730000, 9.6696000, 29.8233000,  32.2723000, 35.5835000, -37.8080000, -13.1400000, 7.6860000, 101221.230000,       0,       0,       0
 1.760, 0.0425000 , -0.0861000, 9.6744000, 29.9301000,  32.2723000, 35.3394000, -38.2280000, -13.1090000, 7.4100000, 101221.230000,       0,       0,       0
 1.770, 0.0520000 , -0.0993000, 9.6804000, 29.9301000,  32.4554000, 35.1868000, -37.8210000, -13.1160000, 7.9510000, 101219.130000,       0,       0,       0
 1.780, 0.0592000 , -0.1089000, 9.6840000, 29.8157000,  32.7835000, 35.1868000, -38.1740000, -12.9260000, 7.6060000, 101219.130000,       0,       0,       0
 1.790, 0.0568000 , -0.1184000, 9.6852000, 29.6631000,  33.1650000, 35.3012000, -38.4830000, -13.1350000, 7.3800000, 101219.310000,       0,       0,       0
 1.800, 0.0437000 , -0.1220000, 9.6816000, 29.5486000,  33.4473000, 35.4004000, -38.2250000, -13.0630000, 7.3030000, 101219.310000,       0,       0,       0
 1.810, 0.0233000 , -0.1208000, 9.6768000, 29.5334000,  33.5159000, 35.4004000, -37.9500000, -13.1740000, 7.6830000, 101219.390000,       0,       0,       0
 1.820, 0.0090000 , -0.1136000, 9.6720000, 29.6478000,  33.3481000, 35.3012000, -37.9220000, -12.7860000, 8.0050000, 101219.390000,       0,       0,       0
 1.830, 0.0066000 , -0.0957000, 9.6684000, 29.8309000,  33.0505000, 35.1791000, -37.7020000, -12.7820000, 7.7710000, 101221.000000,       0,       0,       0
 1.840, 0.0114000 , -0.0742000, 9.6684000, 29.9835000,  32.8369000, 35.1028000, -37.9750000, -12.7480000, 7.6710000, 101221.000000,       0,       0,       0
 1.850, 0.0245000 , -0.0586000, 9.6756000, 30.0369000,  32.8369000, 35.1334000, -38.1970000, -12.9120000, 7.6300000, 101217.590000,       0,       0,       0
 1.860, 0.0365000 , -0.0538000, 9.6792000, 30.0140000,  33.0048000, 35.2097000, -37.9580000, -13.0170000, 7.6480000, 101217.590000,       0,       0,       0
 1.870, 0.0353000 , -0.0586000, 9.6780000, 30.0140000,  33.2031000, 35.2402000, -37.8880000, -12.8460000, 8.0330000, 101219.540000,       0,       0,       0
 1.880, 0.0233000 , -0.0694000, 9.6732000, 30.0980000,  33.2642000, 35.2173000, -37.8310000, -12.7670000, 8.4390000, 101219.540000,       0,       0,       0
 1.890, 0.0018000 , -0.0802000, 9.6696000, 30.2582000,  33.0658000, 35.1334000, -38.0350000, -12.8220000, 8.5190000, 101222.550000,       0,       0,       0
 1.900, -0.0185000, -0.0802000, 9.6720000, 30.4337000,  32.6004000, 35.0647000, -38.1790000, -12.4650000, 7.6380000, 101222.550000,       0,       0,       0
 1.910, -0.0185000, -0.0670000, 9.6720000, 30.5023000,  32.0206000, 35.0342000, -38.0730000, -13.1260000, 7.9070000, 101222.620000,       0,       0,       0
 1.920, 0.0042000 , -0.0538000, 9.6708000, 30.4947000,  31.5704000, 35.0723000, -38.0610000, -12.8830000, 7.7880000, 101222.620000,       0,       0,       0
 1.930, 0.0341000 , -0.0550000, 9.6732000, 30.5328000,  31.5018000, 35.1791000, -38.2950000, -12.5150000, 7.8010000, 101220.320000,       0,       0,       0
 1.940, 0.0580000 , -0.0730000, 9.6780000, 30.5634000,  31.7688000, 35.2936000, -38.0490000, -12.9430000, 8.1500000, 101220.320000,       0,       0,       0
 1.950, 0.0676000 , -0.0981000, 9.6792000, 30.5710000,  32.1884000, 35.3165000, -38.0900000, -12.7910000, 8.4200000, 101219.350000,       0,       0,       0
 1.960, 0.0568000 , -0.1136000, 9.6780000, 30.5557000,  32.5928000, 35.2478000, -38.0720000, -12.8310000, 8.1690000, 101219.350000,       0,       0,       0
 1.970, 0.0401000 , -0.1065000, 9.6780000, 30.5023000,  32.8522000, 35.1639000, -37.9700000, -12.9500000, 8.3550000, 101220.840000,       0,       0,       0
 1.980, 0.0305000 , -0.0730000, 9.6780000, 30.3879000,  32.9437000, 35.0952000, -37.9450000, -12.7590000, 8.7030000, 101220.840000,       0,       0,       0
 1.990, 0.0305000 , -0.0275000, 9.6756000, 30.2277000,  32.8827000, 35.0189000, -38.0630000, -12.5410000, 8.0790000, 101222.340000,       0,       0,       0
 2.000, 0.0353000 , 0.0024000 , 9.6720000, 30.0522000,  32.7759000, 34.9274000, -38.2330000, -13.1210000, 8.3700000, 101222.340000,       0,       0,       0
 2.010, 0.0389000 , 0.0072000 , 9.6708000, 29.8996000,  32.7530000, 34.8740000, -37.9470000, -12.7620000, 8.7290000, 101221.920000,       0,       0,       0
 2.020, 0.0413000 , -0.0096000, 9.6732000, 29.8080000,  32.8140000, 34.8511000, -38.0820000, -12.5830000, 8.0710000, 101221.920000,       0,       0,       0
 2.030, 0.0401000 , -0.0395000, 9.6744000, 29.7241000,  32.8979000, 34.8816000, -38.2170000, -12.9610000, 8.1720000, 101218.440000,       0,       0,       0
 2.040, 0.0341000 , -0.0730000, 9.6756000, 29.6478000,  32.9895000, 34.9579000, -38.2320000, -12.4460000, 8.2720000, 101218.440000,       0,       0,       0
 2.050, 0.0245000 , -0.1005000, 9.6756000, 29.6326000,  33.0124000, 35.0800000, -38.3080000, -12.8950000, 7.8630000, 101220.990000,       0,       0,       0
 2.060, 0.0173000 , -0.1136000, 9.6744000, 29.7012000,  32.9132000, 35.1715000, -37.9040000, -12.5610000, 7.6840000, 101220.990000,       0,       0,       0
 2.070, 0.0114000 , -0.1089000, 9.6756000, 29.8080000,  32.7301000, 35.1715000, -38.2060000, -12.6050000, 7.4500000, 101218.440000,       0,       0,       0
 2.080, 0.0138000 , -0.0933000, 9.6780000, 29.8615000,  32.5317000, 35.1105000, -38.3280000, -12.6500000, 7.8850000, 101218.440000,       0,       0,       0
 2.090, 0.0209000 , -0.0766000, 9.6792000, 29.8157000,  32.3410000, 35.0418000, -37.7550000, -12.8070000, 7.0980000, 101219.230000,       0,       0,       0
 2.100, 0.0269000 , -0.0658000, 9.6780000, 29.7318000,  32.2266000, 35.0494000, -37.7580000, -12.9880000, 7.9070000, 101219.230000,       0,       0,       0
 2.110, 0.0317000 , -0.0658000, 9.6768000, 29.6860000,  32.1732000, 35.1562000, -37.5970000, -12.5690000, 7.5600000, 101220.550000,       0,       0,       0
 2.120, 0.0341000 , -0.0766000, 9.6744000, 29.6783000,  32.1503000, 35.3241000, -37.9550000, -12.9430000, 7.1430000, 101220.550000,       0,       0,       0
 2.130, 0.0365000 , -0.0897000, 9.6720000, 29.7089000,  32.1579000, 35.4614000, -37.8720000, -12.7880000, 7.5740000, 101219.090000,       0,       0,       0
 2.140, 0.0413000 , -0.0933000, 9.6708000, 29.8004000,  32.2189000, 35.4309000, -37.9960000, -12.7680000, 7.6820000, 101219.090000,       0,       0,       0
 2.150, 0.0496000 , -0.0802000, 9.6720000, 29.9072000,  32.3257000, 35.2097000, -38.3350000, -12.6200000, 7.2710000, 101219.130000,       0,       0,       0
 2.160, 0.0496000 , -0.0574000, 9.6732000, 29.9454000,  32.4326000, 34.9045000, -38.1220000, -12.7370000, 7.0060000, 101219.130000,       0,       0,       0
 2.170, 0.0389000 , -0.0347000, 9.6732000, 29.8996000,  32.4936000, 34.7061000, -38.4090000, -12.8450000, 7.6090000, 101219.090000,       0,       0,       0
 2.180, 0.0245000 , -0.0167000, 9.6720000, 29.7928000,  32.4326000, 34.6451000, -38.3960000, -12.7250000, 6.8220000, 101219.090000,       0,       0,       0
 2.190, 0.0161000 , -0.0012000, 9.6720000, 29.6707000,  32.2418000, 34.6756000, -37.9080000, -12.5940000, 6.8130000, 101217.100000,       0,       0,       0
 2.200, 0.0209000 , 0.0120000 , 9.6708000, 29.5486000,  31.9977000, 34.7061000, -38.1770000, -12.7360000, 7.1080000, 101217.100000,       0,       0,       0
 2.210, 0.0365000 , 0.0179000 , 9.6708000, 29.3808000,  31.8375000, 34.6680000, -37.9270000, -12.7490000, 7.2230000, 101219.390000,       0,       0,       0
 2.220, 0.0580000 , 0.0036000 , 9.6732000, 29.0375000,  31.9290000, 34.6451000, -38.0620000, -12.6700000, 7.2210000, 101219.390000,       0,       0,       0
 2.230, 0.0628000 , -0.0275000, 9.6780000, 28.7704000,  32.1884000, 34.7977000, -38.1080000, -12.6720000, 7.1310000, 101220.510000,       0,       0,       0
 2.240, 0.0592000 , -0.0658000, 9.6780000, 28.5416000,  32.4707000, 35.0266000, -37.9830000, -12.5330000, 7.4790000, 101220.510000,       0,       0,       0
 2.250, 0.0461000 , -0.0993000, 9.6756000, 28.4195000,  32.6691000, 35.2478000, -38.0370000, -12.8100000, 7.4060000, 101219.130000,       0,       0,       0
 2.260, 0.0281000 , -0.1113000, 9.6720000, 28.4576000,  32.6385000, 35.3622000, -38.2330000, -12.9840000, 6.7830000, 101219.130000,       0,       0,       0
 2.270, 0.0150000 , -0.1005000, 9.6720000, 28.6560000,  32.3486000, 35.3775000, -38.2920000, -12.5190000, 7.2990000, 101220.790000,       0,       0,       0
 2.280, 0.0221000 , -0.0742000, 9.6720000, 28.9536000,  31.9595000, 35.3012000, -38.6040000, -12.3590000, 7.0710000, 101220.790000,       0,       0,       0
 2.290, 0.0293000 , -0.0371000, 9.6732000, 29.1748000,  31.7307000, 35.0571000, -38.1080000, -12.5580000, 7.1660000, 101218.740000,       0,       0,       0
 2.300, 0.0520000 , -0.0132000, 9.6744000, 29.1138000,  31.7764000, 34.6832000, -38.3450000, -12.9180000, 7.4250000, 101218.740000,       0,       0,       0
 2.310, 0.0700000 , -0.0156000, 9.6768000, 28.9307000,  31.7993000, 34.4162000, -38.3540000, -12.7830000, 6.9110000, 101221.120000,       0,       0,       0
 2.320, 0.0796000 , -0.0371000, 9.6816000, 28.7247000,  32.0358000, 34.4467000, -38.2990000, -12.7780000, 7.2500000, 101221.120000,       0,       0,       0
 2.330, 0.0819000 , -0.0658000, 9.6852000, 28.4348000,  32.4554000, 34.6909000, -38.3720000, -12.5990000, 6.9560000, 101220.730000,       0,       0,       0
 2.340, 0.0760000 , -0.0957000, 9.6864000, 28.0380000,  32.8674000, 35.0342000, -38.1040000, -12.8180000, 7.3310000, 101220.730000,       0,       0,       0
 2.350, 0.0604000 , -0.1304000, 9.6840000, 27.6794000,  33.2336000, 35.4156000, -38.2650000, -12.8730000, 7.6860000, 101222.730000,       0,       0,       0
 2.360, 0.0484000 , -0.1627000, 9.6804000, 27.5192000,  33.4396000, 35.6903000, -38.3270000, -12.7550000, 6.8180000, 101222.730000,       0,       0,       0
 2.370, 0.0461000 , -0.1866000, 9.6768000, 27.6260000,  33.4015000, 35.7895000, -38.0350000, -12.6420000, 7.1350000, 101221.160000,       0,       0,       0
 2.380, 0.0544000 , -0.1962000, 9.6744000, 27.8854000,  33.3176000, 35.7208000, -38.2790000, -12.7140000, 6.6100000, 101221.160000,       0,       0,       0
 2.390, 0.0676000 , -0.1914000, 9.6768000, 28.1372000,  33.3710000, 35.5911000, -38.0740000, -12.9540000, 7.3820000, 101219.200000,       0,       0,       0
 2.400, 0.0784000 , -0.1830000, 9.6780000, 28.3051000,  33.5617000, 35.5148000, -38.2770000, -12.8060000, 7.5910000, 101219.200000,       0,       0,       0
 2.410, 0.0760000 , -0.1771000, 9.6792000, 28.4271000,  33.7982000, 35.6140000, -38.2020000, -12.7380000, 7.1580000, 101219.450000,       0,       0,       0
 2.420, 0.0616000 , -0.1687000, 9.6780000, 28.5187000,  33.9813000, 35.8887000, -38.0660000, -12.8240000, 7.0040000, 101219.450000,       0,       0,       0
 2.430, 0.0413000 , -0.1555000, 9.6744000, 28.6102000,  33.9737000, 36.1938000, -38.2180000, -12.9550000, 6.8060000, 101223.030000,       0,       0,       0
 2.440, 0.0245000 , -0.1376000, 9.6684000, 28.7552000,  33.7296000, 36.3922000, -38.1490000, -12.6840000, 6.8950000, 101223.030000,       0,       0,       0
 2.450, 0.0138000 , -0.1136000, 9.6648000, 28.9230000,  33.3557000, 36.4456000, -38.3180000, -13.0990000, 7.0370000, 101221.220000,       0,       0,       0
 2.460, 0.0150000 , -0.0861000, 9.6648000, 29.1061000,  32.9819000, 36.3770000, -38.3870000, -13.0470000, 6.7480000, 101221.220000,       0,       0,       0
 2.470, 0.0293000 , -0.0634000, 9.6660000, 29.3045000,  32.7454000, 36.2396000, -38.1940000, -12.8520000, 6.7110000, 101219.270000,       0,       0,       0
 2.480, 0.0473000 , -0.0526000, 9.6696000, 29.4418000,  32.7148000, 36.1099000, -38.3260000, -13.0350000, 6.5190000, 101219.270000,       0,       0,       0
 2.490, 0.0568000 , -0.0538000, 9.6744000, 29.5105000,  32.8979000, 36.0489000, -38.4530000, -12.9970000, 6.5150000, 101224.340000,       0,       0,       0
 2.500, 0.0580000 , -0.0622000, 9.6768000, 29.5258000,  33.2413000, 36.0641000, -38.2090000, -12.9170000, 6.8640000, 101224.340000,       0,       0,       0
 2.510, 0.0508000 , -0.0802000, 9.6756000, 29.5334000,  33.5693000, 36.1099000, -38.1240000, -12.8810000, 6.2360000, 101219.690000,       0,       0,       0
 2.520, 0.0353000 , -0.1029000, 9.6732000, 29.6249000,  33.7219000, 36.1176000, -38.2050000, -12.8560000, 7.1160000, 101219.690000,       0,       0,       0
 2.530, 0.0161000 , -0.1256000, 9.6696000, 29.8309000,  33.6609000, 35.9879000, -38.0610000, -12.6900000, 6.3950000, 101221.270000,       0,       0,       0
 2.540, 0.0054000 , -0.1328000, 9.6660000, 30.1132000,  33.4320000, 35.6750000, -38.1650000, -12.6140000, 6.5630000, 101221.270000,       0,       0,       0
 2.550, 0.0066000 , -0.1244000, 9.6600000, 30.5099000,  33.1726000, 35.2402000, -38.0980000, -13.1580000, 7.0080000, 101224.610000,       0,       0,       0
 2.560, 0.0102000 , -0.1125000, 9.6588000, 31.0287000,  32.9514000, 34.8282000, -37.8910000, -12.7910000, 7.1190000, 101224.610000,       0,       0,       0
 2.570, 0.0066000 , -0.0981000, 9.6624000, 31.5399000,  32.6996000, 34.5459000, -38.3200000, -12.9140000, 6.9770000, 101218.570000,       0,       0,       0
 2.580, 0.0042000 , -0.0790000, 9.6696000, 31.8451000,  32.4326000, 34.4315000, -38.0670000, -12.8760000, 7.0120000, 101218.570000,       0,       0,       0
 2.590, 0.0138000 , -0.0574000, 9.6756000, 31.8375000,  32.2113000, 34.4162000, -37.9240000, -12.9540000, 6.8440000, 101221.340000,       0,       0,       0
 2.600, 0.0305000 , -0.0395000, 9.6804000, 31.5781000,  32.0892000, 34.4620000, -38.1190000, -12.8340000, 6.4130000, 101221.340000,       0,       0,       0
 2.610, 0.0520000 , -0.0407000, 9.6852000, 31.1279000,  32.0969000, 34.5917000, -37.9790000, -12.9370000, 7.5940000, 101218.500000,       0,       0,       0
 2.620, 0.0724000 , -0.0682000, 9.6864000, 30.5710000,  32.2418000, 34.7595000, -38.1280000, -12.6710000, 6.5250000, 101218.500000,       0,       0,       0
 2.630, 0.0760000 , -0.1244000, 9.6852000, 30.0674000,  32.4707000, 34.9045000, -38.2000000, -12.8080000, 6.8330000, 101222.760000,       0,       0,       0
 2.640, 0.0616000 , -0.1950000, 9.6828000, 29.8157000,  32.6462000, 35.0342000, -38.0080000, -12.8600000, 6.7840000, 101222.760000,       0,       0,       0
 2.650, 0.0473000 , -0.2536000, 9.6780000, 29.9072000,  32.6996000, 35.1334000, -38.2100000, -12.6100000, 7.1260000, 101220.470000,       0,       0,       0
 2.660, 0.0425000 , -0.2740000, 9.6756000, 30.2277000,  32.7072000, 35.2020000, -37.9340000, -12.8350000, 6.9030000, 101220.470000,       0,       0,       0
 2.670, 0.0413000 , -0.2524000, 9.6780000, 30.5328000,  32.6920000, 35.2707000, -38.1180000, -12.6530000, 7.4940000, 101221.390000,       0,       0,       0
 2.680, 0.0401000 , -0.1986000, 9.6828000, 30.5862000,  32.7682000, 35.4156000, -38.1890000, -13.3490000, 6.8780000, 101221.390000,       0,       0,       0
 2.690, 0.0425000 , -0.1352000, 9.6852000, 30.3574000,  32.9895000, 35.7132000, -38.1680000, -12.5900000, 6.6550000, 101218.760000,       0,       0,       0
 2.700, 0.0473000 , -0.0766000, 9.6852000, 29.9835000,  33.2947000, 36.0947000, -37.7150000, -12.8800000, 7.3080000, 101218.760000,       0,       0,       0
 2.710, 0.0520000 , -0.0359000, 9.6840000, 29.5639000,  33.6075000, 36.4075000, -37.9720000, -12.8300000, 6.8960000, 101219.790000,       0,       0,       0
 2.720, 0.0520000 , -0.0191000, 9.6816000, 29.1519000,  33.8516000, 36.4914000, -38.3170000, -12.7030000, 7.5570000, 101219.790000,       0,       0,       0
 2.730, 0.0496000 , -0.0263000, 9.6804000, 28.8239000,  33.9813000, 36.3312000, -38.0900000, -12.8270000, 7.1280000, 101221.090000,       0,       0,       0
 2.740, 0.0449000 , -0.0443000, 9.6792000, 28.5797000,  34.0652000, 36.0336000, -37.9700000, -12.6990000, 7.2640000, 101221.090000,       0,       0,       0
 2.750, 0.0317000 , -0.0718000, 9.6756000, 28.4042000,  34.1415000, 35.6903000, -37.7180000, -12.6320000, 7.7390000, 101219.520000,       0,       0,       0
 2.760, 0.0173000 , -0.0873000, 9.6732000, 28.4348000,  34.1034000, 35.6674000, -37.8990000, -12.6640000, 7.2150000, 101219.520000,       0,       0,       0
 2.770, 0.0042000 , -0.0993000, 9.6708000, 28.5873000,  33.9508000, 35.7513000, -38.0860000, -12.8290000, 6.9970000, 101219.480000,       0,       0,       0
 2.780, -0.0030000, -0.1053000, 9.6684000, 28.8391000,  33.6761000, 35.8429000, -38.3310000, -12.7450000, 7.1550000, 101219.480000,       0,       0,       0
 2.790, -0.0018000, -0.1053000, 9.6660000, 29.1672000,  33.3710000, 35.8582000, -38.0820000, -12.4600000, 7.6040000, 101221.450000,       0,       0,       0
 2.800, 0.0042000 , -0.0993000, 9.6672000, 29.4571000,  33.0887000, 35.7819000, -37.8950000, -12.9390000, 7.9780000, 101221.450000,       0,       0,       0
 2.810, 0.0126000 , -0.0933000, 9.6708000, 29.6249000,  32.8751000, 35.6827000, -37.9260000, -12.6040000, 7.5840000, 101219.200000,       0,       0,       0
 2.820, 0.0197000 , -0.0897000, 9.6732000, 29.6707000,  32.8140000, 35.6140000, -38.1440000, -12.6430000, 6.9790000, 101219.200000,       0,       0,       0
 2.830, 0.0209000 , -0.0897000, 9.6744000, 29.6555000,  32.8522000, 35.5835000, -37.9350000, -12.7350000, 7.6520000, 101220.510000,       0,       0,       0
 2.840, 0.0138000 , -0.0861000, 9.6744000, 29.6249000,  32.8751000, 35.5759000, -38.1940000, -12.7650000, 7.4100000, 101220.510000,       0,       0,       0
 2.850, 0.0054000 , -0.0849000, 9.6720000, 29.5944000,  32.8140000, 35.5988000, -38.0430000, -12.8230000, 7.5380000, 101219.580000,       0,       0,       0
 2.860, -0.0006000, -0.0885000, 9.6684000, 29.6249000,  32.6157000, 35.6216000, -38.1320000, -12.7610000, 7.4650000, 101219.580000,       0,       0,       0
 2.870, 0.0042000 , -0.0969000, 9.6660000, 29.7699000,  32.3944000, 35.6140000, -38.1530000, -12.8960000, 7.1660000, 101222.570000,       0,       0,       0
 2.880, 0.0150000 , -0.1053000, 9.6660000, 29.9988000,  32.2723000, 35.5606000, -38.0110000, -12.6030000, 6.8580000, 101222.570000,       0,       0,       0
 2.890, 0.0257000 , -0.1148000, 9.6696000, 30.1819000,  32.2571000, 35.4919000, -38.0560000, -12.7850000, 7.6540000, 101220.870000,       0,       0,       0
 2.900, 0.0377000 , -0.1244000, 9.6732000, 30.2658000,  32.3715000, 35.4309000, -38.1200000, -12.8360000, 7.2100000, 101220.870000,       0,       0,       0
 2.910, 0.0437000 , -0.1376000, 9.6756000, 30.2505000,  32.6309000, 35.3928000, -38.0130000, -12.8140000, 6.9870000, 101221.050000,       0,       0,       0
 2.920, 0.0449000 , -0.1471000, 9.6804000, 30.1437000,  32.9437000, 35.3394000, -38.2210000, -12.5190000, 7.3970000, 101221.050000,       0,       0,       0
 2.930, 0.0401000 , -0.1495000, 9.6816000, 29.9759000,  33.2184000, 35.2325000, -38.0570000, -12.5340000, 7.4710000, 101220.700000,       0,       0,       0
 2.940, 0.0305000 , -0.1448000, 9.6792000, 29.8309000,  33.3786000, 35.0723000, -38.3860000, -12.9300000, 7.8500000, 101220.700000,       0,       0,       0
 2.950, 0.0150000 , -0.1364000, 9.6744000, 29.7699000,  33.3405000, 34.9350000, -38.1230000, -12.9680000, 7.0500000, 101216.160000,       0,       0,       0
 2.960, -0.0018000, -0.1256000, 9.6696000, 29.8386000,  33.0887000, 34.9045000, -38.3320000, -12.7890000, 7.7150000, 101216.160000,       0,       0,       0
 2.970, -0.0114000, -0.1113000, 9.6684000, 30.0140000,  32.6843000, 34.9808000, -38.2440000, -12.7580000, 8.0680000, 101221.050000,       0,       0,       0
 2.980, -0.0078000, -0.0885000, 9.6696000, 30.2048000,  32.2571000, 35.0418000, -37.9310000, -12.9460000, 7.4890000, 101221.050000,       0,       0,       0
 2.990, 0.0078000 , -0.0682000, 9.6720000, 30.2887000,  31.9977000, 35.0494000, -37.9200000, -12.7350000, 7.7160000, 101222.990000,       0,       0,       0
 3.000, 0.0293000 , -0.0550000, 9.6756000, 30.2277000,  31.9595000, 34.9960000, -37.9140000, -12.6850000, 7.0700000, 101222.990000,       0,       0,       0
 3.010, 0.0413000 , -0.0538000, 9.6792000, 30.0598000,  32.1350000, 34.9045000, -38.0550000, -13.0500000, 7.5960000, 101220.870000,       0,       0,       0
 3.020, 0.0389000 , -0.0646000, 9.6816000, 29.8004000,  32.3944000, 34.8969000, -38.0570000, -12.9440000, 7.8350000, 101220.870000,       0,       0,       0
 3.030, 0.0281000 , -0.0837000, 9.6816000, 29.5181000,  32.5699000, 35.0113000, -38.1130000, -12.7850000, 7.3740000, 101219.860000,       0,       0,       0
 3.040, 0.0161000 , -0.1053000, 9.6780000, 29.3884000,  32.6157000, 35.2249000, -38.1050000, -12.3880000, 6.7350000, 101219.860000,       0,       0,       0
 3.050, 0.0090000 , -0.1208000, 9.6732000, 29.5105000,  32.5470000, 35.4385000, -38.5310000, -12.8170000, 7.2740000, 101221.270000,       0,       0,       0
 3.060, 0.0126000 , -0.1184000, 9.6696000, 29.8004000,  32.4097000, 35.5072000, -38.5330000, -12.8260000, 6.7380000, 101221.270000,       0,       0,       0
 3.070, 0.0245000 , -0.1077000, 9.6708000, 30.0522000,  32.3334000, 35.4156000, -38.2470000, -12.9340000, 7.1680000, 101219.270000,       0,       0,       0
 3.080, 0.0281000 , -0.1005000, 9.6732000, 30.1361000,  32.3105000, 35.2402000, -38.3900000, -12.6610000, 7.3580000, 101219.270000,       0,       0,       0
 3.090, 0.0305000 , -0.1017000, 9.6744000, 30.1132000,  32.2952000, 35.0494000, -38.2160000, -13.1110000, 7.6690000, 101218.410000,       0,       0,       0
 3.100, 0.0353000 , -0.1089000, 9.6756000, 30.0903000,  32.3105000, 34.8740000, -38.3320000, -12.7040000, 6.9860000, 101218.410000,       0,       0,       0
 3.110, 0.0341000 , -0.1196000, 9.6768000, 29.9911000,  32.5241000, 34.6146000, -38.2120000, -12.6970000, 7.3400000, 101222.920000,       0,       0,       0
 3.120, 0.0353000 , -0.1304000, 9.6756000, 29.8309000,  32.5699000, 34.2865000, -38.2220000, -12.7010000, 6.9260000, 101222.920000,       0,       0,       0
 3.130, 0.0293000 , -0.1328000, 9.6732000, 29.7852000,  32.3944000, 34.1873000, -38.3100000, -12.9110000, 6.8890000, 101221.730000,       0,       0,       0
 3.140, 0.0209000 , -0.1304000, 9.6720000, 29.8996000,  32.2952000, 34.4696000, -38.3200000, -12.4830000, 7.7840000, 101221.730000,       0,       0,       0
 3.150, 0.0150000 , -0.1208000, 9.6744000, 30.0827000,  32.1426000, 34.9808000, -38.0530000, -12.8030000, 6.6260000, 101222.390000,       0,       0,       0
 3.160, 0.0209000 , -0.1005000, 9.6744000, 30.1971000,  32.0282000, 35.3775000, -38.3680000, -12.6030000, 6.6940000, 101222.390000,       0,       0,       0
 3.170, 0.0317000 , -0.0718000, 9.6756000, 30.1971000,  31.9595000, 35.4309000, -38.0420000, -12.8780000, 6.5640000, 101220.980000,       0,       0,       0
 3.180, 0.0413000 , -0.0443000, 9.6756000, 30.0980000,  31.8604000, 35.1791000, -38.0540000, -12.8900000, 7.1950000, 101220.980000,       0,       0,       0
 3.190, 0.0401000 , -0.0251000, 9.6744000, 29.9454000,  31.8451000, 34.8969000, -38.2590000, -13.0330000, 7.5360000, 101221.800000,       0,       0,       0
 3.200, 0.0353000 , -0.0191000, 9.6744000, 29.7699000,  31.8222000, 34.8434000, -38.0470000, -12.8910000, 7.2250000, 101221.800000,       0,       0,       0
 3.210, 0.0269000 , -0.0323000, 9.6744000, 29.5715000,  31.7841000, 35.1028000, -37.9110000, -12.7400000, 7.1610000, 101224.570000,       0,       0,       0
 3.220, 0.0245000 , -0.0622000, 9.6744000, 29.3884000,  31.7612000, 35.6064000, -37.8530000, -12.8900000, 7.0250000, 101224.570000,       0,       0,       0
 3.230, 0.0329000 , -0.1005000, 9.6732000, 29.2816000,  31.7688000, 36.1099000, -38.0890000, -13.0550000, 7.0730000, 101219.820000,       0,       0,       0
 3.240, 0.0473000 , -0.1412000, 9.6732000, 29.2816000,  31.8832000, 36.4304000, -38.0830000, -12.5600000, 7.3970000, 101219.820000,       0,       0,       0
 3.250, 0.0640000 , -0.1735000, 9.6732000, 29.4189000,  32.0663000, 36.4380000, -38.3320000, -12.6680000, 7.3210000, 101218.570000,       0,       0,       0
 3.260, 0.0784000 , -0.1890000, 9.6732000, 29.6860000,  32.2800000, 36.1328000, -38.1360000, -12.8660000, 7.7470000, 101218.570000,       0,       0,       0
 3.270, 0.0819000 , -0.1675000, 9.6756000, 30.1285000,  32.6309000, 35.2783000, -38.1740000, -13.0050000, 7.9830000, 101217.820000,       0,       0,       0
 3.280, 0.0772000 , -0.1292000, 9.6780000, 30.2811000,  32.7911000, 34.6756000, -38.3000000, -12.7710000, 8.1810000, 101217.820000,       0,       0,       0
 3.290, 0.0676000 , -0.0861000, 9.6780000, 30.2429000,  32.9361000, 34.1949000, -38.1330000, -12.7690000, 7.2950000, 101221.050000,       0,       0,       0
 3.300, 0.0544000 , -0.0562000, 9.6768000, 30.0903000,  33.0048000, 33.9813000, -38.2540000, -12.7690000, 7.2880000, 101221.050000,       0,       0,       0
 3.310, 0.0389000 , -0.0502000, 9.6732000, 29.8996000,  32.9437000, 34.0881000, -38.3340000, -12.7560000, 7.1250000, 101219.640000,       0,       0,       0
 3.320, 0.0197000 , -0.0670000, 9.6696000, 29.7318000,  32.7835000, 34.4772000, -38.2240000, -13.2340000, 7.1540000, 101219.640000,       0,       0,       0
 3.330, 0.0054000 , -0.0957000, 9.6708000, 29.6021000,  32.5089000, 35.0571000, -38.0950000, -12.8090000, 6.9230000, 101221.410000,       0,       0,       0
 3.340, 0.0102000 , -0.1232000, 9.6732000, 29.5334000,  32.2113000, 35.6750000, -38.1130000, -12.7770000, 7.1960000, 101221.410000,       0,       0,       0
 3.350, 0.0305000 , -0.1400000, 9.6732000, 29.5715000,  31.9901000, 36.0947000, -38.3800000, -12.9890000, 7.2230000, 101219.910000,       0,       0,       0
 3.360, 0.0604000 , -0.1459000, 9.6732000, 29.7470000,  31.9443000, 36.1938000, -38.2500000, -12.7000000, 7.7700000, 101219.910000,       0,       0,       0
 3.370, 0.0879000 , -0.1388000, 9.6780000, 29.9606000,  32.1655000, 35.9879000, -38.1750000, -12.8690000, 7.4250000, 101219.760000,       0,       0,       0
 3.380, 0.1023000 , -0.1232000, 9.6804000, 30.0674000,  32.5623000, 35.5988000, -38.2600000, -12.7740000, 6.6740000, 101219.760000,       0,       0,       0
 3.390, 0.0999000 , -0.1089000, 9.6816000, 30.0064000,  33.0429000, 35.2402000, -38.0380000, -12.9030000, 7.1430000, 101222.630000,       0,       0,       0
 3.400, 0.0831000 , -0.0993000, 9.6804000, 29.8462000,  33.5007000, 35.0571000, -38.1860000, -12.7640000, 7.1010000, 101222.630000,       0,       0,       0
 3.410, 0.0616000 , -0.0921000, 9.6780000, 29.7470000,  33.7982000, 35.0647000, -38.2740000, -12.8970000, 6.8370000, 101221.300000,       0,       0,       0
 3.420, 0.0401000 , -0.0873000, 9.6732000, 29.7775000,  33.8287000, 35.1334000, -38.0670000, -12.8970000, 7.6260000, 101221.300000,       0,       0,       0
 3.430, 0.0257000 , -0.0825000, 9.6696000, 29.9225000,  33.6227000, 35.1334000, -38.0790000, -12.6420000, 7.6900000, 101217.050000,       0,       0,       0
 3.440, 0.0197000 , -0.0754000, 9.6684000, 30.1208000,  33.2489000, 35.0113000, -38.2070000, -12.6780000, 7.6080000, 101217.050000,       0,       0,       0
 3.450, 0.0269000 , -0.0646000, 9.6696000, 30.2811000,  32.8445000, 34.8434000, -38.5700000, -12.7700000, 7.2750000, 101218.880000,       0,       0,       0
 3.460, 0.0365000 , -0.0598000, 9.6744000, 30.3421000,  32.5699000, 34.7214000, -38.3600000, -12.6170000, 7.7250000, 101218.880000,       0,       0,       0
 3.470, 0.0461000 , -0.0634000, 9.6780000, 30.2505000,  32.4707000, 34.7214000, -38.3220000, -12.8650000, 7.1650000, 101220.880000,       0,       0,       0
 3.480, 0.0556000 , -0.0730000, 9.6792000, 30.0293000,  32.5470000, 34.8282000, -38.0410000, -12.5250000, 7.4800000, 101220.880000,       0,       0,       0
 3.490, 0.0592000 , -0.0873000, 9.6792000, 29.7699000,  32.7301000, 35.0342000, -37.7940000, -12.8020000, 7.3250000, 101222.330000,       0,       0,       0
 3.500, 0.0544000 , -0.1017000, 9.6792000, 29.5029000,  32.9056000, 35.3470000, -37.8930000, -12.4920000, 7.8040000, 101222.330000,       0,       0,       0
 3.510, 0.0437000 , -0.1148000, 9.6792000, 29.2664000,  32.9819000, 35.7437000, -37.8750000, -12.6750000, 7.3910000, 101219.860000,       0,       0,       0
 3.520, 0.0317000 , -0.1316000, 9.6792000, 29.0604000,  32.8903000, 36.1481000, -38.2750000, -13.1280000, 7.4420000, 101219.860000,       0,       0,       0
 3.530, 0.0257000 , -0.1459000, 9.6768000, 28.9459000,  32.6385000, 36.4456000, -38.1480000, -12.6620000, 6.7270000, 101221.230000,       0,       0,       0
 3.540, 0.0269000 , -0.1459000, 9.6744000, 28.9688000,  32.3563000, 36.5219000, -38.0190000, -12.9210000, 7.5280000, 101221.230000,       0,       0,       0
 3.550, 0.0413000 , -0.1304000, 9.6744000, 29.0909000,  32.1426000, 36.3693000, -38.1510000, -13.0230000, 7.3750000, 101219.520000,       0,       0,       0
 3.560, 0.0568000 , -0.0969000, 9.6732000, 29.2206000,  32.0282000, 36.0870000, -38.0940000, -12.8890000, 6.4980000, 101219.520000,       0,       0,       0
 3.570, 0.0628000 , -0.0610000, 9.6720000, 29.2816000,  32.0587000, 35.8353000, -38.0260000, -12.8050000, 7.2170000, 101219.090000,       0,       0,       0
 3.580, 0.0580000 , -0.0335000, 9.6720000, 29.2511000,  32.1960000, 35.7666000, -38.0380000, -12.6730000, 7.3180000, 101219.090000,       0,       0,       0
 3.590, 0.0520000 , -0.0215000, 9.6708000, 29.1519000,  32.2952000, 35.8582000, -37.8380000, -12.5220000, 7.8300000, 101221.060000,       0,       0,       0
 3.600, 0.0437000 , -0.0275000, 9.6696000, 29.0680000,  32.3029000, 35.9955000, -37.8110000, -12.8260000, 7.7980000, 101221.060000,       0,       0,       0
 3.610, 0.0365000 , -0.0431000, 9.6684000, 29.0070000,  32.1808000, 36.0718000, -38.2310000, -12.8100000, 7.9730000, 101222.880000,       0,       0,       0
 3.620, 0.0377000 , -0.0670000, 9.6672000, 29.0070000,  31.9672000, 36.0336000, -38.2370000, -12.8870000, 7.4240000, 101222.880000,       0,       0,       0
 3.630, 0.0473000 , -0.0945000, 9.6660000, 29.1214000,  31.7535000, 35.9039000, -37.9830000, -12.6250000, 7.3580000, 101219.690000,       0,       0,       0
 3.640, 0.0604000 , -0.1160000, 9.6672000, 29.3121000,  31.6772000, 35.7666000, -38.1280000, -12.7640000, 8.0850000, 101219.690000,       0,       0,       0
 3.650, 0.0748000 , -0.1280000, 9.6708000, 29.4037000,  31.7764000, 35.7132000, -38.0940000, -12.6080000, 7.7690000, 101218.810000,       0,       0,       0
 3.660, 0.0855000 , -0.1352000, 9.6744000, 29.3655000,  32.0435000, 35.7895000, -38.1700000, -12.7770000, 7.9610000, 101218.810000,       0,       0,       0
 3.670, 0.0867000 , -0.1400000, 9.6768000, 29.2892000,  32.3868000, 35.9421000, -38.1590000, -12.6370000, 7.7350000, 101219.690000,       0,       0,       0
 3.680, 0.0807000 , -0.1388000, 9.6768000, 29.2358000,  32.6538000, 36.0718000, -37.9890000, -12.9560000, 7.5180000, 101219.690000,       0,       0,       0
 3.690, 0.0712000 , -0.1340000, 9.6732000, 29.2358000,  32.7454000, 36.0794000, -38.1800000, -12.8800000, 7.8950000, 101216.700000,       0,       0,       0
 3.700, 0.0592000 , -0.1268000, 9.6708000, 29.3121000,  32.6614000, 35.9726000, -38.2600000, -13.0830000, 7.6150000, 101216.700000,       0,       0,       0
 3.710, 0.0520000 , -0.1160000, 9.6708000, 29.4571000,  32.4783000, 35.8429000, -37.7700000, -12.6410000, 8.0810000, 101221.980000,       0,       0,       0
 3.720, 0.0556000 , -0.1029000, 9.6720000, 29.5868000,  32.3029000, 35.7437000, -38.0810000, -12.6160000, 7.6720000, 101221.980000,       0,       0,       0
 3.730, 0.0676000 , -0.0957000, 9.6756000, 29.6402000,  32.2800000, 35.7132000, -37.9760000, -12.6460000, 7.9680000, 101223.270000,       0,       0,       0
 3.740, 0.0807000 , -0.0993000, 9.6756000, 29.6326000,  32.3944000, 35.6674000, -38.0720000, -12.6290000, 8.0420000, 101223.270000,       0,       0,       0
 3.750, 0.0855000 , -0.1113000, 9.6744000, 29.6021000,  32.6004000, 35.5301000, -37.9520000, -12.5300000, 8.3420000, 101225.340000,       0,       0,       0
 3.760, 0.0819000 , -0.1292000, 9.6732000, 29.6097000,  32.7759000, 35.3088000, -38.4390000, -12.4510000, 8.2780000, 101225.340000,       0,       0,       0
 3.770, 0.0724000 , -0.1471000, 9.6708000, 29.7165000,  32.8674000, 35.0800000, -38.1200000, -12.6480000, 8.4170000, 101222.950000,       0,       0,       0
 3.780, 0.0604000 , -0.1495000, 9.6696000, 29.9225000,  32.8751000, 34.9121000, -37.7510000, -12.5570000, 7.8230000, 101222.950000,       0,       0,       0
 3.790, 0.0544000 , -0.1340000, 9.6708000, 30.1514000,  32.7988000, 34.8511000, -38.0560000, -12.5540000, 7.9860000, 101221.800000,       0,       0,       0
 3.800, 0.0532000 , -0.1041000, 9.6732000, 30.2963000,  32.6996000, 34.8892000, -37.9790000, -12.6780000, 7.9920000, 101221.800000,       0,       0,       0
 3.810, 0.0508000 , -0.0694000, 9.6744000, 30.3116000,  32.6157000, 35.0113000, -38.1220000, -12.9160000, 8.1460000, 101221.980000,       0,       0,       0
 3.820, 0.0484000 , -0.0359000, 9.6744000, 30.0674000,  32.4249000, 35.2631000, -37.6960000, -12.7820000, 8.2700000, 101221.980000,       0,       0,       0
 3.830, 0.0473000 , -0.0371000, 9.6720000, 29.8920000,  32.2723000, 35.4233000, -38.1660000, -12.7080000, 8.1780000, 101220.300000,       0,       0,       0
 3.840, 0.0508000 , -0.0538000, 9.6708000, 29.8615000,  32.0969000, 35.5225000, -38.0100000, -12.7740000, 7.5400000, 101220.300000,       0,       0,       0
 3.850, 0.0580000 , -0.0766000, 9.6708000, 29.9683000,  31.9214000, 35.4996000, -37.7460000, -12.6450000, 7.5410000, 101219.760000,       0,       0,       0
 3.860, 0.0712000 , -0.1005000, 9.6708000, 30.1590000,  31.7688000, 35.3470000, -37.8660000, -12.8240000, 7.4220000, 101219.760000,       0,       0,       0
 3.870, 0.0819000 , -0.1208000, 9.6732000, 30.3726000,  31.7001000, 35.0952000, -38.2400000, -12.8260000, 7.1660000, 101220.210000,       0,       0,       0
 3.880, 0.0939000 , -0.1352000, 9.6756000, 30.5710000,  31.7764000, 34.8206000, -37.9640000, -12.6550000, 7.2050000, 101220.210000,       0,       0,       0
 3.890, 0.0999000 , -0.1412000, 9.6792000, 30.7007000,  31.9748000, 34.5688000, -38.2130000, -12.6480000, 6.8480000, 101222.330000,       0,       0,       0
 3.900, 0.0975000 , -0.1412000, 9.6804000, 30.7312000,  32.2037000, 34.4086000, -38.0100000, -12.4940000, 7.3800000, 101222.330000,       0,       0,       0
 3.910, 0.0855000 , -0.1388000, 9.6804000, 30.6931000,  32.3868000, 34.3933000, -37.8170000, -12.3930000, 7.3790000, 101218.770000,       0,       0,       0
 3.920, 0.0736000 , -0.1316000, 9.6792000, 30.6244000,  32.4631000, 34.5383000, -38.1600000, -12.5160000, 7.6180000, 101218.770000,       0,       0,       0
 3.930, 0.0664000 , -0.1208000, 9.6780000, 30.5328000,  32.4478000, 34.8129000, -38.2100000, -12.3790000, 7.6800000, 101218.910000,       0,       0,       0
 3.940, 0.0628000 , -0.1089000, 9.6780000, 30.4031000,  32.3410000, 35.1639000, -38.0270000, -12.4050000, 7.5560000, 101218.910000,       0,       0,       0
 3.950, 0.0676000 , -0.0981000, 9.6768000, 30.2353000,  32.2113000, 35.4767000, -38.1490000, -12.5190000, 7.8440000, 101221.450000,       0,       0,       0
 3.960, 0.0807000 , -0.0873000, 9.6768000, 30.0674000,  32.1426000, 35.6522000, -38.0940000, -13.0030000, 8.5050000, 101221.450000,       0,       0,       0
 3.970, 0.0927000 , -0.0849000, 9.6780000, 29.9149000,  32.1732000, 35.7208000, -38.1210000, -12.6060000, 7.7360000, 101220.520000,       0,       0,       0
 3.980, 0.1023000 , -0.0897000, 9.6792000, 29.7699000,  32.2800000, 35.7132000, -38.2800000, -12.5060000, 7.7010000, 101220.520000,       0,       0,       0
 3.990, 0.1047000 , -0.1017000, 9.6804000, 29.6249000,  32.4860000, 35.7056000, -38.1340000, -12.7190000, 8.1700000, 101221.150000,       0,       0,       0
 4.000, 0.1023000 , -0.1136000, 9.6804000, 29.4724000,  32.6996000, 35.7437000, -38.1500000, -12.8000000, 7.6300000, 101221.150000,       0,       0,       0
 4.010, 0.0939000 , -0.1196000, 9.6804000, 29.3198000,  32.8827000, 35.8734000, -38.2440000, -12.8300000, 7.9960000, 101220.130000,       0,       0,       0
 4.020, 0.0855000 , -0.1220000, 9.6792000, 29.2130000,  33.0505000, 36.1023000, -38.2230000, -12.5640000, 7.2030000, 101220.130000,       0,       0,       0
 4.030, 0.0819000 , -0.1196000, 9.6780000, 29.1748000,  33.1573000, 36.3083000, -38.3270000, -12.7550000, 7.6710000, 101222.740000,       0,       0,       0
 4.040, 0.0807000 , -0.1101000, 9.6756000, 29.2053000,  33.1497000, 36.3159000, -38.1450000, -12.7950000, 8.2900000, 101222.740000,       0,       0,       0
 4.050, 0.0819000 , -0.1005000, 9.6744000, 29.2969000,  33.0505000, 36.0947000, -38.1500000, -12.6990000, 7.6490000, 101220.130000,       0,       0,       0
 4.060, 0.0879000 , -0.0933000, 9.6744000, 29.4266000,  32.8827000, 35.7361000, -37.8640000, -12.6480000, 7.8160000, 101220.130000,       0,       0,       0
 4.070, 0.0927000 , -0.0861000, 9.6744000, 29.5639000,  32.8064000, 35.3622000, -38.3970000, -12.7750000, 7.9670000, 101222.180000,       0,       0,       0
 4.080, 0.0915000 , -0.0825000, 9.6768000, 29.6402000,  32.8522000, 35.1181000, -38.2380000, -12.8460000, 7.5500000, 101222.180000,       0,       0,       0
 4.090, 0.0867000 , -0.0873000, 9.6780000, 29.6326000,  32.9208000, 35.0342000, -38.0910000, -12.7050000, 8.2980000, 101222.950000,       0,       0,       0
 4.100, 0.0807000 , -0.0957000, 9.6768000, 29.6249000,  32.9742000, 35.0418000, -38.1140000, -12.8060000, 7.2190000, 101222.950000,       0,       0,       0
 4.110, 0.0712000 , -0.1029000, 9.6744000, 29.6707000,  32.8979000, 35.0800000, -38.3970000, -12.9330000, 7.4410000, 101220.000000,       0,       0,       0
 4.120, 0.0628000 , -0.1041000, 9.6732000, 29.7394000,  32.6920000, 35.1105000, -37.9490000, -12.5400000, 7.3370000, 101220.000000,       0,       0,       0
 4.130, 0.0616000 , -0.0981000, 9.6720000, 29.8386000,  32.4249000, 35.1181000, -38.1880000, -12.6930000, 6.9410000, 101220.640000,       0,       0,       0
 4.140, 0.0724000 , -0.0909000, 9.6720000, 29.9759000,  32.2037000, 35.0876000, -38.2510000, -12.8230000, 7.2730000, 101220.640000,       0,       0,       0
 4.150, 0.0867000 , -0.0837000, 9.6756000, 30.0903000,  32.1274000, 35.0037000, -38.3680000, -12.8250000, 8.3620000, 101219.860000,       0,       0,       0
 4.160, 0.0987000 , -0.0849000, 9.6792000, 30.0598000,  32.2418000, 34.9503000, -38.1770000, -12.3890000, 8.4350000, 101219.860000,       0,       0,       0
 4.170, 0.1023000 , -0.0969000, 9.6828000, 29.8538000,  32.5089000, 35.0266000, -38.1030000, -12.6240000, 8.1380000, 101223.090000,       0,       0,       0
 4.180, 0.1011000 , -0.1148000, 9.6852000, 29.5715000,  32.8903000, 35.2631000, -38.2400000, -12.4240000, 8.0250000, 101223.090000,       0,       0,       0
 4.190, 0.0975000 , -0.1256000, 9.6816000, 29.3350000,  33.2489000, 35.5453000, -38.0420000, -12.7560000, 7.9590000, 101222.220000,       0,       0,       0
 4.200, 0.0879000 , -0.1292000, 9.6780000, 29.2206000,  33.4930000, 35.7590000, -37.8150000, -12.3060000, 7.7980000, 101222.220000,       0,       0,       0
 4.210, 0.0772000 , -0.1280000, 9.6744000, 29.2664000,  33.5388000, 35.8200000, -38.3330000, -12.6610000, 7.2760000, 101221.690000,       0,       0,       0
 4.220, 0.0664000 , -0.1148000, 9.6732000, 29.4266000,  33.3939000, 35.7056000, -38.3300000, -12.4420000, 7.8710000, 101221.690000,       0,       0,       0
 4.230, 0.0652000 , -0.0933000, 9.6720000, 29.6173000,  33.0887000, 35.4614000, -38.4630000, -12.9860000, 7.2260000, 101219.670000,       0,       0,       0
 4.240, 0.0688000 , -0.0718000, 9.6732000, 29.7623000,  32.7606000, 35.2020000, -38.1340000, -12.7190000, 7.3790000, 101219.670000,       0,       0,       0
 4.250, 0.0700000 , -0.0586000, 9.6756000, 29.7928000,  32.4707000, 35.0494000, -38.2950000, -13.0390000, 7.3300000, 101221.450000,       0,       0,       0
 4.260, 0.0712000 , -0.0586000, 9.6768000, 29.6860000,  32.2723000, 35.0876000, -37.9930000, -12.7940000, 7.8290000, 101221.450000,       0,       0,       0
 4.270, 0.0748000 , -0.0730000, 9.6756000, 29.5258000,  32.1808000, 35.2707000, -38.3110000, -12.7030000, 7.6690000, 101222.370000,       0,       0,       0
 4.280, 0.0796000 , -0.0945000, 9.6744000, 29.4495000,  32.1808000, 35.4996000, -38.5150000, -12.5790000, 7.2910000, 101222.370000,       0,       0,       0
 4.290, 0.0855000 , -0.1125000, 9.6732000, 29.4876000,  32.2037000, 35.5759000, -38.2550000, -12.8110000, 7.3220000, 101223.420000,       0,       0,       0
 4.300, 0.0915000 , -0.1184000, 9.6732000, 29.5868000,  32.2723000, 35.4919000, -38.4660000, -12.7440000, 7.3470000, 101223.420000,       0,       0,       0
 4.310, 0.0951000 , -0.1089000, 9.6744000, 29.6860000,  32.3715000, 35.3394000, -38.0110000, -12.7680000, 7.3170000, 101219.910000,       0,       0,       0
 4.320, 0.0939000 , -0.0945000, 9.6756000, 29.7318000,  32.4783000, 35.2249000, -38.2930000, -12.7860000, 7.2870000, 101219.910000,       0,       0,       0
 4.330, 0.0891000 , -0.0837000, 9.6768000, 29.7165000,  32.5546000, 35.1868000, -38.5790000, -12.6710000, 8.0430000, 101219.060000,       0,       0,       0
 4.340, 0.0843000 , -0.0802000, 9.6768000, 29.6936000,  32.6309000, 35.2097000, -38.1800000, -12.6010000, 8.1830000, 101219.060000,       0,       0,       0
 4.350, 0.0796000 , -0.0790000, 9.6768000, 29.6860000,  32.6309000, 35.2631000, -38.4640000, -12.5770000, 7.6590000, 101220.640000,       0,       0,       0
 4.360, 0.0796000 , -0.0825000, 9.6768000, 29.6631000,  32.5699000, 35.3546000, -38.3820000, -12.7240000, 7.8990000, 101220.640000,       0,       0,       0
 4.370, 0.0843000 , -0.0945000, 9.6756000, 29.6631000,  32.5470000, 35.4843000, -38.3990000, -12.7190000, 7.7640000, 101225.620000,       0,       0,       0
 4.380, 0.0939000 , -0.1220000, 9.6804000, 29.6783000,  32.5851000, 35.6522000, -38.5540000, -12.5380000, 7.0410000, 101225.620000,       0,       0,       0
 4.390, 0.0975000 , -0.1388000, 9.6828000, 29.6402000,  32.6309000, 35.6827000, -38.3260000, -12.7610000, 7.3250000, 101222.930000,       0,       0,       0
 4.400, 0.1035000 , -0.1519000, 9.6828000, 29.6097000,  32.7225000, 35.5911000, -38.2920000, -12.5900000, 7.3500000, 101222.930000,       0,       0,       0
 4.410, 0.1047000 , -0.1567000, 9.6816000, 29.6631000,  32.8140000, 35.3928000, -38.6260000, -12.5310000, 7.3820000, 101220.270000,       0,       0,       0
 4.420, 0.0987000 , -0.1495000, 9.6816000, 29.7394000,  32.8751000, 35.1715000, -38.2520000, -12.7220000, 6.9990000, 101220.270000,       0,       0,       0
 4.430, 0.0903000 , -0.1328000, 9.6792000, 29.7852000,  32.8445000, 35.0189000, -38.3730000, -12.9300000, 7.0290000, 101219.050000,       0,       0,       0
 4.440, 0.0843000 , -0.1113000, 9.6768000, 29.7852000,  32.7606000, 35.0113000, -38.3050000, -12.9920000, 6.9580000, 101219.050000,       0,       0,       0
 4.450, 0.0819000 , -0.0945000, 9.6744000, 29.7089000,  32.6767000, 35.1715000, -38.2910000, -12.7260000, 6.9430000, 101223.230000,       0,       0,       0
 4.460, 0.0807000 , -0.0861000, 9.6744000, 29.5792000,  32.5775000, 35.4233000, -38.5590000, -12.6210000, 6.4550000, 101223.230000,       0,       0,       0
 4.470, 0.0807000 , -0.0897000, 9.6744000, 29.4800000,  32.5089000, 35.6522000, -38.3570000, -12.5630000, 6.9900000, 101222.110000,       0,       0,       0
 4.480, 0.0843000 , -0.1041000, 9.6756000, 29.4495000,  32.4631000, 35.7895000, -38.0520000, -12.9170000, 7.4070000, 101222.110000,       0,       0,       0
 4.490, 0.0915000 , -0.1208000, 9.6768000, 29.4952000,  32.4554000, 35.7971000, -38.0340000, -12.6400000, 7.7120000, 101220.130000,       0,       0,       0
 4.500, 0.1011000 , -0.1292000, 9.6804000, 29.5868000,  32.5012000, 35.6750000, -38.2340000, -12.9990000, 7.3210000, 101220.130000,       0,       0,       0
 4.510, 0.1071000 , -0.1292000, 9.6816000, 29.6707000,  32.5775000, 35.4691000, -38.1440000, -12.5050000, 7.5160000, 101220.280000,       0,       0,       0
 4.520, 0.1083000 , -0.1244000, 9.6816000, 29.7394000,  32.6462000, 35.2402000, -38.3540000, -12.4730000, 7.3800000, 101220.280000,       0,       0,       0
 4.530, 0.1011000 , -0.1184000, 9.6792000, 29.8004000,  32.6767000, 35.0342000, -38.1400000, -12.6240000, 7.4930000, 101219.110000,       0,       0,       0
 4.540, 0.0891000 , -0.1053000, 9.6768000, 29.8615000,  32.6233000, 34.8740000, -38.2800000, -12.3910000, 6.8520000, 101219.110000,       0,       0,       0
 4.550, 0.0819000 , -0.0897000, 9.6744000, 29.8920000,  32.5012000, 34.7366000, -38.3110000, -12.3870000, 7.0030000, 101219.260000,       0,       0,       0
 4.560, 0.0760000 , -0.0802000, 9.6732000, 29.9225000,  32.3105000, 34.6375000, -38.1590000, -12.5780000, 7.3620000, 101219.260000,       0,       0,       0
 4.570, 0.0736000 , -0.0790000, 9.6732000, 29.9225000,  32.0816000, 34.6146000, -38.0320000, -12.7100000, 7.9690000, 101224.480000,       0,       0,       0
 4.580, 0.0807000 , -0.0885000, 9.6744000, 29.8843000,  31.9061000, 34.6756000, -38.0420000, -12.5550000, 6.8740000, 101224.480000,       0,       0,       0
 4.590, 0.0915000 , -0.1065000, 9.6792000, 29.7928000,  31.8832000, 34.8663000, -38.3140000, -12.6050000, 7.6200000, 101220.780000,       0,       0,       0
 4.600, 0.1035000 , -0.1280000, 9.6840000, 29.6021000,  32.0358000, 35.1944000, -37.9510000, -12.4560000, 7.3810000, 101220.780000,       0,       0,       0
 4.610, 0.1166000 , -0.1483000, 9.6875000, 29.3655000,  32.3410000, 35.6064000, -38.0560000, -13.1790000, 7.3040000, 101220.140000,       0,       0,       0
 4.620, 0.1250000 , -0.1615000, 9.6864000, 29.1748000,  32.7606000, 35.9268000, -38.2950000, -12.7240000, 6.9930000, 101220.140000,       0,       0,       0
 4.630, 0.1286000 , -0.1639000, 9.6828000, 29.1214000,  33.1802000, 36.0184000, -38.0670000, -12.6580000, 7.5340000, 101222.780000,       0,       0,       0
 4.640, 0.1250000 , -0.1495000, 9.6780000, 29.1977000,  33.5007000, 35.8658000, -38.4190000, -12.8340000, 7.6930000, 101222.780000,       0,       0,       0
 4.650, 0.1154000 , -0.1220000, 9.6744000, 29.3884000,  33.7067000, 35.5530000, -38.3520000, -12.8520000, 7.4770000, 101219.270000,       0,       0,       0
 4.660, 0.1059000 , -0.0849000, 9.6720000, 29.6326000,  33.8211000, 35.2173000, -38.2210000, -12.6050000, 7.8380000, 101219.270000,       0,       0,       0
 4.670, 0.0987000 , -0.0526000, 9.6720000, 29.8157000,  33.8287000, 34.9197000, -38.4540000, -12.6810000, 7.3370000, 101223.420000,       0,       0,       0
 4.680, 0.0927000 , -0.0371000, 9.6720000, 29.9225000,  33.7830000, 34.6832000, -38.2370000, -12.7650000, 7.2600000, 101223.420000,       0,       0,       0
 4.690, 0.0867000 , -0.0419000, 9.6720000, 29.9530000,  33.6838000, 34.5154000, -38.3770000, -13.0130000, 7.0810000, 101220.950000,       0,       0,       0
 4.700, 0.0819000 , -0.0622000, 9.6720000, 29.9377000,  33.5770000, 34.4315000, -38.3810000, -12.6520000, 7.6460000, 101220.950000,       0,       0,       0
 4.710, 0.0748000 , -0.0945000, 9.6732000, 29.9149000,  33.4320000, 34.4391000, -38.5590000, -12.4060000, 7.7540000, 101223.590000,       0,       0,       0
 4.720, 0.0736000 , -0.1280000, 9.6744000, 29.9301000,  33.2184000, 34.5001000, -38.2550000, -12.8560000, 7.6640000, 101223.590000,       0,       0,       0
 4.730, 0.0784000 , -0.1555000, 9.6756000, 29.9988000,  33.0200000, 34.5535000, -38.5270000, -12.6910000, 7.0630000, 101221.890000,       0,       0,       0
 4.740, 0.0819000 , -0.1687000, 9.6768000, 30.0522000,  32.9132000, 34.6069000, -38.1620000, -12.8330000, 7.0330000, 101221.890000,       0,       0,       0
 4.750, 0.0867000 , -0.1723000, 9.6780000, 30.0598000,  32.8751000, 34.7290000, -38.2400000, -12.7040000, 7.4300000, 101220.070000,       0,       0,       0
 4.760, 0.0903000 , -0.1687000, 9.6804000, 30.0217000,  32.9514000, 34.9731000, -38.4940000, -12.6140000, 7.1740000, 101220.070000,       0,       0,       0
 4.770, 0.0867000 , -0.1567000, 9.6828000, 29.8996000,  33.1116000, 35.3241000, -38.4770000, -12.8120000, 7.2310000, 101222.950000,       0,       0,       0
 4.780, 0.0831000 , -0.1352000, 9.6840000, 29.6631000,  33.2489000, 35.6903000, -38.1410000, -12.8620000, 6.9420000, 101222.950000,       0,       0,       0
 4.790, 0.0807000 , -0.1136000, 9.6816000, 29.4037000,  33.3328000, 35.9726000, -38.2510000, -13.0510000, 7.3800000, 101222.540000,       0,       0,       0
 4.800, 0.0772000 , -0.0945000, 9.6792000, 29.2282000,  33.3252000, 36.1404000, -38.4030000, -12.6230000, 7.4200000, 101222.540000,       0,       0,       0
 4.810, 0.0736000 , -0.0730000, 9.6756000, 29.1443000,  33.2031000, 36.2167000, -38.2890000, -12.7740000, 7.3180000, 101219.550000,       0,       0,       0
 4.820, 0.0724000 , -0.0574000, 9.6720000, 29.0985000,  32.9971000, 36.2320000, -38.1920000, -12.8120000, 6.8880000, 101219.550000,       0,       0,       0
 4.830, 0.0724000 , -0.0538000, 9.6732000, 29.0833000,  32.8064000, 36.2320000, -38.3180000, -12.6950000, 6.9570000, 101220.800000,       0,       0,       0
 4.840, 0.0784000 , -0.0598000, 9.6744000, 29.1061000,  32.6614000, 36.1938000, -38.0430000, -12.5340000, 6.9920000, 101220.800000,       0,       0,       0
 4.850, 0.0951000 , -0.0694000, 9.6768000, 29.1519000,  32.6920000, 36.0565000, -38.1090000, -12.6080000, 7.3500000, 101221.730000,       0,       0,       0
 4.860, 0.1238000 , -0.0778000, 9.6792000, 29.2053000,  32.9971000, 35.8124000, -37.9490000, -12.6550000, 6.9170000, 101221.730000,       0,       0,       0
 4.870, 0.1430000 , -0.0861000, 9.6840000, 29.1519000,  33.6151000, 35.5301000, -38.0200000, -12.8710000, 7.5650000, 101219.580000,       0,       0,       0
 4.880, 0.1370000 , -0.1065000, 9.6887000, 28.8925000,  34.4391000, 35.4233000, -38.1070000, -12.9080000, 7.1970000, 101219.580000,       0,       0,       0
 4.890, 0.1095000 , -0.1400000, 9.6911000, 28.4882000,  35.2554000, 35.6598000, -37.8990000, -13.0350000, 7.9130000, 101222.020000,       0,       0,       0
 4.900, 0.0748000 , -0.1771000, 9.6875000, 28.1143000,  35.7971000, 36.1328000, -38.0960000, -12.6590000, 7.5280000, 101222.020000,       0,       0,       0
 4.910, 0.0461000 , -0.1974000, 9.6816000, 27.9007000,  35.9726000, 36.5753000, -38.1750000, -12.9320000, 7.7550000, 101220.130000,       0,       0,       0
 4.920, 0.0305000 , -0.1950000, 9.6744000, 27.8320000,  35.8276000, 36.7355000, -38.0680000, -13.1620000, 8.0210000, 101220.130000,       0,       0,       0
 4.930, 0.0245000 , -0.1771000, 9.6696000, 27.9236000,  35.4156000, 36.5219000, -37.8800000, -12.8940000, 8.1090000, 101219.600000,       0,       0,       0
 4.940, 0.0185000 , -0.1543000, 9.6660000, 28.2669000,  34.7672000, 36.0413000, -37.8460000, -12.5590000, 7.7610000, 101219.600000,       0,       0,       0
 4.950, 0.0173000 , -0.1256000, 9.6636000, 28.9230000,  34.0805000, 35.5225000, -37.8270000, -12.7620000, 7.7800000, 101219.270000,       0,       0,       0
 4.960, 0.0173000 , -0.0909000, 9.6648000, 29.6402000,  33.4015000, 35.1410000, -38.1220000, -12.9570000, 7.0530000, 101219.270000,       0,       0,       0
 4.970, 0.0293000 , -0.0562000, 9.6720000, 30.1437000,  32.7606000, 34.9045000, -38.1440000, -12.8300000, 7.8780000, 101220.320000,       0,       0,       0
 4.980, 0.0317000 , -0.0622000, 9.6756000, 30.0674000,  32.6080000, 35.0494000, -37.9700000, -12.8270000, 7.0230000, 101220.320000,       0,       0,       0
 4.990, 0.0317000 , -0.0909000, 9.6780000, 29.8920000,  32.6233000, 35.4385000, -37.9440000, -12.7140000, 7.2650000, 101223.590000,       0,       0,       0
 5.000, 0.0329000 , -0.1280000, 9.6792000, 29.6707000,  32.6767000, 35.8124000, -38.0680000, -12.5310000, 6.9590000, 101223.590000,       0,       0,       0
 5.010, 0.0341000 , -0.1627000, 9.6792000, 29.4724000,  32.6309000, 35.9039000, -37.8940000, -13.1460000, 6.7370000, 101221.120000,       0,       0,       0
 5.020, 0.0341000 , -0.1842000, 9.6768000, 29.4266000,  32.4707000, 35.7513000, -38.0480000, -12.6470000, 6.4300000, 101221.120000,       0,       0,       0
 5.030, 0.0353000 , -0.1818000, 9.6756000, 29.5639000,  32.2418000, 35.5377000, -37.8080000, -12.7000000, 6.9940000, 101219.270000,       0,       0,       0
 5.040, 0.0425000 , -0.1603000, 9.6732000, 29.7546000,  32.0587000, 35.3699000, -37.9090000, -12.7220000, 7.0500000, 101219.270000,       0,       0,       0
 5.050, 0.0532000 , -0.1328000, 9.6768000, 29.8691000,  32.0129000, 35.3012000, -37.9740000, -12.6860000, 7.0190000, 101221.910000,       0,       0,       0
 5.060, 0.0664000 , -0.1148000, 9.6816000, 29.8462000,  32.1045000, 35.3622000, -37.9750000, -12.3430000, 6.7830000, 101221.910000,       0,       0,       0
 5.070, 0.0760000 , -0.1136000, 9.6840000, 29.7012000,  32.3257000, 35.4919000, -37.8740000, -12.4210000, 7.2940000, 101222.090000,       0,       0,       0
 5.080, 0.0760000 , -0.1268000, 9.6840000, 29.4952000,  32.6614000, 35.6369000, -37.7950000, -12.4780000, 6.6780000, 101222.090000,       0,       0,       0
 5.090, 0.0652000 , -0.1471000, 9.6816000, 29.3198000,  32.9132000, 35.7437000, -37.7100000, -12.4930000, 7.2960000, 101220.130000,       0,       0,       0
 5.100, 0.0508000 , -0.1675000, 9.6768000, 29.2740000,  32.9819000, 35.7742000, -38.0880000, -12.6510000, 6.7190000, 101220.130000,       0,       0,       0
 5.110, 0.0353000 , -0.1782000, 9.6720000, 29.3884000,  32.8293000, 35.7132000, -38.3570000, -12.7550000, 7.3850000, 101221.350000,       0,       0,       0
 5.120, 0.0293000 , -0.1771000, 9.6696000, 29.6249000,  32.4860000, 35.6064000, -37.9820000, -12.5720000, 7.2620000, 101221.350000,       0,       0,       0
 5.130, 0.0365000 , -0.1627000, 9.6696000, 29.8920000,  32.1655000, 35.4538000, -38.0670000, -12.4930000, 7.2460000, 101219.800000,       0,       0,       0
 5.140, 0.0556000 , -0.1412000, 9.6720000, 30.1590000,  31.9824000, 35.2402000, -37.9470000, -12.6810000, 6.9530000, 101219.800000,       0,       0,       0
 5.150, 0.0772000 , -0.1232000, 9.6744000, 30.4108000,  32.0358000, 34.9579000, -38.0680000, -12.9540000, 7.3620000, 101221.480000,       0,       0,       0
 5.160, 0.0915000 , -0.1125000, 9.6780000, 30.5405000,  32.3334000, 34.6603000, -37.8440000, -12.9440000, 7.1120000, 101221.480000,       0,       0,       0
 5.170, 0.0927000 , -0.1065000, 9.6816000, 30.4718000,  32.7606000, 34.4238000, -38.1670000, -12.4510000, 7.5570000, 101220.480000,       0,       0,       0
 5.180, 0.0807000 , -0.1065000, 9.6828000, 30.2353000,  33.1345000, 34.3399000, -38.3550000, -12.6830000, 6.9560000, 101220.480000,       0,       0,       0
 5.190, 0.0580000 , -0.1148000, 9.6792000, 29.9835000,  33.3252000, 34.4772000, -38.0660000, -12.6720000, 6.7440000, 101221.350000,       0,       0,       0
 5.200, 0.0305000 , -0.1256000, 9.6756000, 29.8157000,  33.2642000, 34.7748000, -38.0190000, -12.7250000, 6.8790000, 101221.350000,       0,       0,       0
 5.210, 0.0138000 , -0.1340000, 9.6720000, 29.7699000,  32.9208000, 35.0494000, -38.2310000, -12.7230000, 7.4240000, 101219.270000,       0,       0,       0
 5.220, 0.0126000 , -0.1364000, 9.6696000, 29.8004000,  32.4020000, 35.1715000, -38.0280000, -12.5760000, 7.4450000, 101219.270000,       0,       0,       0
 5.230, 0.0233000 , -0.1316000, 9.6708000, 29.8691000,  31.9061000, 35.1257000, -38.1050000, -12.7110000, 7.0470000, 101219.270000,       0,       0,       0
 5.240, 0.0449000 , -0.1256000, 9.6732000, 29.9530000,  31.5704000, 35.0266000, -38.3900000, -12.4010000, 7.1580000, 101219.270000,       0,       0,       0
 5.250, 0.0676000 , -0.1268000, 9.6756000, 30.0217000,  31.5094000, 34.9655000, -38.2410000, -12.5810000, 7.9460000, 101220.250000,       0,       0,       0
 5.260, 0.0843000 , -0.1328000, 9.6804000, 30.0293000,  31.7383000, 34.9655000, -38.1630000, -12.6390000, 7.6240000, 101220.250000,       0,       0,       0
 5.270, 0.0951000 , -0.1412000, 9.6840000, 29.9530000,  32.1350000, 34.9960000, -38.0710000, -12.7630000, 7.4530000, 101220.250000,       0,       0,       0
 5.280, 0.0939000 , -0.1448000, 9.6852000, 29.7852000,  32.5928000, 35.0571000, -38.3110000, -12.5510000, 6.7570000, 101220.250000,       0,       0,       0
 5.290, 0.0843000 , -0.1459000, 9.6828000, 29.6021000,  32.9742000, 35.1562000, -38.1780000, -12.7560000, 6.9910000, 101220.000000,       0,       0,       0
 5.300, 0.0664000 , -0.1471000, 9.6792000, 29.5105000,  33.1573000, 35.2478000, -38.1810000, -12.5350000, 7.0990000, 101220.000000,       0,       0,       0
 5.310, 0.0484000 , -0.1483000, 9.6768000, 29.5563000,  33.0963000, 35.2707000, -38.2380000, -12.8730000, 6.8100000, 101223.340000,       0,       0,       0
 5.320, 0.0389000 , -0.1412000, 9.6744000, 29.6783000,  32.8293000, 35.1715000, -38.1000000, -12.7700000, 6.7690000, 101223.340000,       0,       0,       0
 5.330, 0.0353000 , -0.1292000, 9.6744000, 29.7928000,  32.4707000, 35.0113000, -38.2120000, -12.6320000, 6.3210000, 101221.550000,       0,       0,       0
 5.340, 0.0401000 , -0.1184000, 9.6744000, 29.8615000,  32.1350000, 34.9045000, -38.0770000, -12.5310000, 6.9460000, 101221.550000,       0,       0,       0
 5.350, 0.0496000 , -0.1125000, 9.6744000, 29.9377000,  31.9290000, 34.8969000, -38.0540000, -12.5950000, 7.2240000, 101220.140000,       0,       0,       0
 5.360, 0.0616000 , -0.1101000, 9.6744000, 29.9988000,  31.8832000, 34.9579000, -38.1470000, -12.4940000, 6.8320000, 101220.140000,       0,       0,       0
 5.370, 0.0748000 , -0.1125000, 9.6744000, 30.0446000,  31.9901000, 35.0037000, -38.3160000, -12.5060000, 6.8190000, 101221.700000,       0,       0,       0
 5.380, 0.0831000 , -0.1184000, 9.6732000, 30.1132000,  32.1808000, 34.9579000, -38.3600000, -12.5570000, 7.5210000, 101221.700000,       0,       0,       0
 5.390, 0.0855000 , -0.1304000, 9.6744000, 30.1819000,  32.3639000, 34.8053000, -38.0200000, -12.6400000, 7.2400000, 101221.710000,       0,       0,       0
 5.400, 0.0819000 , -0.1424000, 9.6744000, 30.2124000,  32.4783000, 34.6146000, -38.1790000, -12.6360000, 6.8840000, 101221.710000,       0,       0,       0
 5.410, 0.0772000 , -0.1471000, 9.6756000, 30.1437000,  32.5699000, 34.5001000, -38.4080000, -12.5980000, 7.1070000, 101219.120000,       0,       0,       0
 5.420, 0.0772000 , -0.1436000, 9.6780000, 29.9606000,  32.7301000, 34.5840000, -38.0930000, -12.9710000, 6.5960000, 101219.120000,       0,       0,       0
 5.430, 0.0796000 , -0.1352000, 9.6780000, 29.7394000,  32.9208000, 34.8587000, -38.1900000, -12.7170000, 7.3770000, 101221.090000,       0,       0,       0
 5.440, 0.0796000 , -0.1244000, 9.6780000, 29.5334000,  33.1345000, 35.2173000, -38.3200000, -12.7820000, 7.6640000, 101221.090000,       0,       0,       0
 5.450, 0.0748000 , -0.1232000, 9.6768000, 29.3655000,  33.3481000, 35.5682000, -38.2440000, -12.9870000, 7.4340000, 101221.160000,       0,       0,       0
 5.460, 0.0664000 , -0.1304000, 9.6756000, 29.2892000,  33.4167000, 35.7590000, -38.3100000, -12.7940000, 6.7880000, 101221.160000,       0,       0,       0
 5.470, 0.0616000 , -0.1400000, 9.6744000, 29.3427000,  33.3481000, 35.7361000, -38.4550000, -13.0560000, 6.7680000, 101219.690000,       0,       0,       0
 5.480, 0.0628000 , -0.1436000, 9.6744000, 29.4952000,  33.2336000, 35.5225000, -38.4660000, -12.6420000, 6.7350000, 101219.690000,       0,       0,       0
 5.490, 0.0676000 , -0.1459000, 9.6744000, 29.6783000,  33.1039000, 35.2097000, -38.4410000, -12.8190000, 6.6860000, 101219.450000,       0,       0,       0
 5.500, 0.0688000 , -0.1459000, 9.6744000, 29.8615000,  33.0353000, 34.9197000, -38.0890000, -12.6870000, 6.8640000, 101219.450000,       0,       0,       0
 5.510, 0.0664000 , -0.1424000, 9.6768000, 29.9835000,  33.0353000, 34.7214000, -38.3740000, -12.8660000, 6.8680000, 101223.080000,       0,       0,       0
 5.520, 0.0640000 , -0.1280000, 9.6768000, 30.0217000,  33.0811000, 34.6451000, -37.9630000, -12.9710000, 6.1070000, 101223.080000,       0,       0,       0
 5.530, 0.0640000 , -0.1065000, 9.6756000, 29.9606000,  33.1421000, 34.6680000, -38.1700000, -13.0260000, 6.6860000, 101219.270000,       0,       0,       0
 5.540, 0.0592000 , -0.0921000, 9.6744000, 29.8615000,  33.1879000, 34.7748000, -37.7100000, -12.4220000, 7.0050000, 101219.270000,       0,       0,       0
 5.550, 0.0461000 , -0.0945000, 9.6720000, 29.7852000,  33.0429000, 34.9503000, -38.3550000, -12.6660000, 6.8050000, 101220.320000,       0,       0,       0
 5.560, 0.0425000 , -0.1089000, 9.6708000, 29.8157000,  32.8217000, 35.0113000, -38.1240000, -12.9810000, 6.9710000, 101220.320000,       0,       0,       0
 5.570, 0.0437000 , -0.1256000, 9.6684000, 29.8920000,  32.5699000, 35.0113000, -38.2940000, -12.9650000, 7.3340000, 101220.290000,       0,       0,       0
 5.580, 0.0496000 , -0.1424000, 9.6708000, 29.9911000,  32.3257000, 34.9655000, -38.1620000, -12.5960000, 6.9350000, 101220.290000,       0,       0,       0
 5.590, 0.0604000 , -0.1543000, 9.6732000, 30.0751000,  32.2113000, 34.9045000, -38.0510000, -12.7720000, 7.5250000, 101219.220000,       0,       0,       0
 5.600, 0.0700000 , -0.1531000, 9.6768000, 30.0903000,  32.2571000, 34.8816000, -38.1950000, -12.4640000, 7.3120000, 101219.220000,       0,       0,       0
 5.610, 0.0796000 , -0.1376000, 9.6792000, 29.9988000,  32.4020000, 34.9045000, -38.4510000, -12.5700000, 7.1190000, 101219.410000,       0,       0,       0
 5.620, 0.0807000 , -0.1196000, 9.6804000, 29.8157000,  32.6385000, 35.0189000, -38.1350000, -13.1000000, 6.7190000, 101219.410000,       0,       0,       0
 5.630, 0.0736000 , -0.1065000, 9.6804000, 29.6249000,  32.8293000, 35.2402000, -38.1620000, -12.7690000, 7.2580000, 101221.550000,       0,       0,       0
 5.640, 0.0664000 , -0.1029000, 9.6792000, 29.5029000,  32.8979000, 35.4462000, -38.1510000, -13.0520000, 7.0690000, 101221.550000,       0,       0,       0
 5.650, 0.0628000 , -0.1053000, 9.6744000, 29.4647000,  32.8751000, 35.5377000, -38.4900000, -12.8820000, 7.6090000, 101219.390000,       0,       0,       0
 5.660, 0.0628000 , -0.1148000, 9.6732000, 29.4647000,  32.8293000, 35.5530000, -37.8880000, -12.8450000, 7.8020000, 101219.390000,       0,       0,       0
 5.670, 0.0640000 , -0.1256000, 9.6732000, 29.4495000,  32.8140000, 35.5682000, -38.0970000, -13.1630000, 6.8060000, 101221.140000,       0,       0,       0
 5.680, 0.0652000 , -0.1412000, 9.6732000, 29.4418000,  32.8293000, 35.6064000, -38.1340000, -12.7600000, 7.2680000, 101221.140000,       0,       0,       0
 5.690, 0.0688000 , -0.1531000, 9.6732000, 29.4495000,  32.9056000, 35.6598000, -38.3310000, -12.9020000, 7.1870000, 101222.910000,       0,       0,       0
 5.700, 0.0676000 , -0.1603000, 9.6744000, 29.4800000,  32.9895000, 35.6903000, -37.9800000, -12.4060000, 6.6040000, 101222.910000,       0,       0,       0
 5.710, 0.0616000 , -0.1627000, 9.6744000, 29.5639000,  32.9895000, 35.6522000, -38.1250000, -12.7730000, 7.6480000, 101221.670000,       0,       0,       0
 5.720, 0.0556000 , -0.1615000, 9.6744000, 29.7241000,  32.8903000, 35.5301000, -37.7770000, -12.9340000, 7.2810000, 101221.670000,       0,       0,       0
 5.730, -0.0526000, 4.5256000 , 0.0000000, 30.4718000, 209.4421000, 19.7678000, -38.4660000, -13.0870000, 7.9030000, 101218.380000,       0,       0,       0
 5.740, 0.0616000 , -0.1244000, 9.6720000, 30.1666000,  32.5775000, 35.1181000, -38.2760000, -12.6170000, 7.2190000, 101218.380000,       0,       0,       0
 5.750, 0.0676000 , -0.1041000, 9.6732000, 30.3421000,  32.5546000, 34.9655000, -38.0100000, -12.8100000, 8.0160000, 101221.380000,       0,       0,       0
 5.760, 0.0700000 , -0.0921000, 9.6780000, 30.4184000,  32.6157000, 34.9274000, -38.1200000, -12.8400000, 6.9840000, 101221.380000,       0,       0,       0
 5.770, 0.0676000 , -0.0885000, 9.6816000, 30.3268000,  32.7072000, 34.9808000, -38.2030000, -13.1680000, 7.4850000, 101220.250000,       0,       0,       0
 5.780, 0.0628000 , -0.0969000, 9.6816000, 30.1208000,  32.7682000, 35.0952000, -38.1800000, -13.0660000, 7.1870000, 101220.250000,       0,       0,       0
 5.790, 0.0592000 , -0.1148000, 9.6792000, 29.9606000,  32.7835000, 35.2325000, -38.4010000, -12.7700000, 7.7010000, 101220.250000,       0,       0,       0
 5.800, 0.0604000 , -0.1340000, 9.6768000, 29.8996000,  32.7301000, 35.3317000, -38.4250000, -12.8530000, 7.2980000, 101220.250000,       0,       0,       0
 5.810, 0.0652000 , -0.1436000, 9.6756000, 29.9149000,  32.6614000, 35.3165000, -38.4020000, -13.1460000, 7.6070000, 101219.270000,       0,       0,       0
 5.820, 0.0748000 , -0.1448000, 9.6768000, 29.9301000,  32.6462000, 35.2097000, -38.1850000, -12.6910000, 7.4700000, 101219.270000,       0,       0,       0
 5.830, 0.0819000 , -0.1448000, 9.6768000, 29.8996000,  32.7301000, 35.1181000, -37.9590000, -12.9810000, 7.5530000, 101222.590000,       0,       0,       0
 5.840, 0.0819000 , -0.1448000, 9.6792000, 29.8233000,  32.9208000, 35.1486000, -38.3560000, -12.9850000, 6.9780000, 101222.590000,       0,       0,       0
 5.850, 0.0796000 , -0.1471000, 9.6828000, 29.6783000,  33.1573000, 35.3394000, -38.2660000, -12.9810000, 7.5430000, 101219.600000,       0,       0,       0
 5.860, 0.0724000 , -0.1519000, 9.6852000, 29.4418000,  33.3710000, 35.6369000, -38.2580000, -12.8940000, 6.7000000, 101219.600000,       0,       0,       0
 5.870, 0.0652000 , -0.1567000, 9.6840000, 29.1901000,  33.5236000, 35.9116000, -38.6650000, -13.1440000, 6.7390000, 101222.950000,       0,       0,       0
 5.880, 0.0568000 , -0.1603000, 9.6804000, 29.0604000,  33.5770000, 36.0947000, -38.2310000, -13.0380000, 6.8540000, 101222.950000,       0,       0,       0
 5.890, 0.0449000 , -0.1567000, 9.6768000, 29.0985000,  33.4473000, 36.1404000, -38.5110000, -12.8900000, 7.3570000, 101221.600000,       0,       0,       0
 5.900, 0.0353000 , -0.1424000, 9.6732000, 29.2816000,  33.1421000, 36.0260000, -38.4870000, -12.3330000, 6.3450000, 101221.600000,       0,       0,       0
 5.910, 0.0293000 , -0.1196000, 9.6696000, 29.5410000,  32.7072000, 35.7590000, -38.3100000, -12.4420000, 7.0370000, 101220.150000,       0,       0,       0
 5.920, 0.0305000 , -0.0885000, 9.6684000, 29.8157000,  32.2189000, 35.4004000, -38.1260000, -12.4510000, 7.4420000, 101220.150000,       0,       0,       0
 5.930, 0.0389000 , -0.0598000, 9.6684000, 30.0293000,  31.8069000, 35.0571000, -38.3850000, -12.5690000, 7.5960000, 101219.600000,       0,       0,       0
 5.940, 0.0532000 , -0.0407000, 9.6696000, 30.0980000,  31.5704000, 34.8587000, -38.3810000, -12.7580000, 7.4150000, 101219.600000,       0,       0,       0
 5.950, 0.0640000 , -0.0407000, 9.6708000, 30.0446000,  31.5323000, 34.8282000, -38.1800000, -12.3910000, 7.4590000, 101221.930000,       0,       0,       0
 5.960, 0.0736000 , -0.0574000, 9.6720000, 29.9454000,  31.6391000, 34.9274000, -38.0160000, -12.5210000, 7.4670000, 101221.930000,       0,       0,       0
 5.970, 0.0784000 , -0.0873000, 9.6732000, 29.8615000,  31.7917000, 35.0800000, -38.0620000, -12.6460000, 7.6240000, 101220.480000,       0,       0,       0
 5.980, 0.0843000 , -0.1256000, 9.6744000, 29.8538000,  31.9290000, 35.1791000, -37.9580000, -12.7430000, 8.0970000, 101220.480000,       0,       0,       0
 5.990, 0.0939000 , -0.1627000, 9.6768000, 29.8996000,  32.1121000, 35.1791000, -38.1690000, -12.8470000, 7.7940000, 101219.410000,       0,       0,       0
 6.000, 0.1035000 , -0.1950000, 9.6804000, 29.9301000,  32.4097000, 35.1334000, -38.4420000, -12.2740000, 7.2070000, 101219.410000,       0,       0,       0
 6.010, 0.1119000 , -0.2165000, 9.6840000, 29.8920000,  32.8522000, 35.1181000, -38.0300000, -12.7710000, 7.6410000, 101221.730000,       0,       0,       0
 6.020, 0.1119000 , -0.2285000, 9.6864000, 29.7470000,  33.3862000, 35.2173000, -38.0830000, -12.6670000, 7.2790000, 101221.730000,       0,       0,       0
 6.030, 0.0999000 , -0.2261000, 9.6864000, 29.5105000,  33.8516000, 35.4385000, -38.0110000, -12.8380000, 7.5080000, 101220.480000,       0,       0,       0
 6.040, 0.0807000 , -0.2117000, 9.6816000, 29.2511000,  34.1339000, 35.7361000, -38.1850000, -12.9060000, 7.5360000, 101220.480000,       0,       0,       0
 6.050, 0.0568000 , -0.1842000, 9.6756000, 29.0833000,  34.1568000, 36.0031000, -38.4110000, -12.6800000, 8.4480000, 101219.740000,       0,       0,       0
 6.060, 0.0365000 , -0.1471000, 9.6720000, 29.0298000,  33.9127000, 36.1710000, -38.0590000, -12.7500000, 7.6160000, 101219.740000,       0,       0,       0
 6.070, 0.0269000 , -0.1041000, 9.6684000, 29.0451000,  33.4702000, 36.2167000, -38.2890000, -13.0680000, 7.4470000, 101223.430000,       0,       0,       0
 6.080, 0.0281000 , -0.0694000, 9.6672000, 29.0909000,  32.9590000, 36.1938000, -37.9580000, -12.8130000, 6.7480000, 101223.430000,       0,       0,       0
 6.090, 0.0437000 , -0.0467000, 9.6684000, 29.1901000,  32.3410000, 36.0947000, -37.9910000, -12.9250000, 7.9020000, 101224.960000,       0,       0,       0
 6.100, 0.0556000 , -0.0562000, 9.6684000, 29.2511000,  32.1045000, 35.9573000, -38.1700000, -12.7970000, 6.8460000, 101224.960000,       0,       0,       0
 6.110, 0.0628000 , -0.0790000, 9.6696000, 29.3121000,  32.0129000, 35.7742000, -38.1010000, -13.1370000, 7.0280000, 101222.590000,       0,       0,       0
 6.120, 0.0664000 , -0.1029000, 9.6696000, 29.3579000,  31.9977000, 35.6064000, -38.1950000, -12.7360000, 7.4580000, 101222.590000,       0,       0,       0
 6.130, 0.0664000 , -0.1220000, 9.6684000, 29.4342000,  32.0206000, 35.4691000, -38.2480000, -12.9260000, 7.4860000, 101221.520000,       0,       0,       0
 6.140, 0.0676000 , -0.1376000, 9.6696000, 29.5868000,  32.0511000, 35.3546000, -38.0330000, -12.8610000, 7.7270000, 101221.520000,       0,       0,       0
 6.150, 0.0748000 , -0.1448000, 9.6708000, 29.8157000,  32.0816000, 35.2173000, -38.1150000, -13.1160000, 7.9340000, 101222.730000,       0,       0,       0
 6.160, 0.0831000 , -0.1436000, 9.6732000, 30.0446000,  32.1732000, 35.0113000, -38.1230000, -12.9160000, 7.3080000, 101222.730000,       0,       0,       0
 6.170, 0.0939000 , -0.1436000, 9.6768000, 30.1666000,  32.3486000, 34.8129000, -38.6490000, -13.0350000, 7.5810000, 101221.980000,       0,       0,       0
 6.180, 0.0987000 , -0.1448000, 9.6780000, 30.1743000,  32.6309000, 34.6985000, -38.0860000, -12.8780000, 7.1740000, 101221.980000,       0,       0,       0
 6.190, 0.0903000 , -0.1507000, 9.6816000, 30.0827000,  32.9285000, 34.7214000, -38.3230000, -12.7070000, 7.9420000, 101223.270000,       0,       0,       0
 6.200, 0.0807000 , -0.1543000, 9.6828000, 29.9072000,  33.1955000, 34.8892000, -37.9500000, -12.4900000, 7.3470000, 101223.270000,       0,       0,       0
 6.210, 0.0688000 , -0.1543000, 9.6816000, 29.7012000,  33.3176000, 35.0952000, -38.1960000, -12.4210000, 7.8800000, 101221.520000,       0,       0,       0
 6.220, 0.0592000 , -0.1495000, 9.6780000, 29.5334000,  33.2642000, 35.2859000, -38.2790000, -12.6340000, 7.9260000, 101221.520000,       0,       0,       0
 6.230, 0.0496000 , -0.1424000, 9.6756000, 29.4724000,  33.0734000, 35.4233000, -38.0550000, -12.5380000, 7.7420000, 101222.140000,       0,       0,       0
 6.240, 0.0449000 , -0.1304000, 9.6732000, 29.5029000,  32.7377000, 35.4843000, -38.1400000, -12.7100000, 7.1560000, 101222.140000,       0,       0,       0
 6.250, 0.0449000 , -0.1196000, 9.6732000, 29.5792000,  32.3639000, 35.4996000, -38.0670000, -12.7230000, 7.8020000, 101219.540000,       0,       0,       0
 6.260, 0.0496000 , -0.1089000, 9.6744000, 29.6173000,  32.0740000, 35.4843000, -38.2970000, -12.4800000, 7.3210000, 101219.540000,       0,       0,       0
 6.270, 0.0604000 , -0.1029000, 9.6756000, 29.6326000,  31.8909000, 35.4767000, -38.2150000, -12.7060000, 7.2240000, 101223.430000,       0,       0,       0
 6.280, 0.0736000 , -0.1065000, 9.6768000, 29.6860000,  31.8680000, 35.4843000, -38.3660000, -13.1740000, 7.3780000, 101223.430000,       0,       0,       0
 6.290, 0.0819000 , -0.1160000, 9.6768000, 29.7852000,  31.9977000, 35.4767000, -38.0760000, -12.7380000, 7.6750000, 101221.410000,       0,       0,       0
 6.300, 0.0867000 , -0.1304000, 9.6768000, 29.8996000,  32.1655000, 35.4080000, -37.9460000, -12.7800000, 7.4060000, 101221.410000,       0,       0,       0
 6.310, 0.0867000 , -0.1436000, 9.6756000, 29.9911000,  32.2723000, 35.2783000, -37.9830000, -12.9970000, 7.2520000, 101220.260000,       0,       0,       0
 6.320, 0.0819000 , -0.1495000, 9.6768000, 30.0751000,  32.3257000, 35.1257000, -37.9590000, -12.8580000, 7.5800000, 101220.260000,       0,       0,       0
 6.330, 0.0784000 , -0.1495000, 9.6768000, 30.1819000,  32.2952000, 34.9884000, -38.0410000, -12.6900000, 7.9930000, 101221.910000,       0,       0,       0
 6.340, 0.0831000 , -0.1471000, 9.6756000, 30.2963000,  32.2723000, 34.8663000, -38.1820000, -12.8460000, 7.6800000, 101221.910000,       0,       0,       0
 6.350, 0.0915000 , -0.1471000, 9.6756000, 30.3421000,  32.3334000, 34.7900000, -38.1800000, -12.5410000, 7.8660000, 101223.480000,       0,       0,       0
 6.360, 0.0999000 , -0.1495000, 9.6804000, 30.2505000,  32.5699000, 34.8358000, -37.9060000, -12.6540000, 7.7890000, 101223.480000,       0,       0,       0
 6.370, 0.1035000 , -0.1543000, 9.6852000, 30.0064000,  32.9590000, 35.0189000, -38.0520000, -12.6780000, 6.9030000, 101223.460000,       0,       0,       0
 6.380, 0.0999000 , -0.1591000, 9.6887000, 29.6707000,  33.3862000, 35.3317000, -38.1980000, -12.8610000, 7.7860000, 101223.460000,       0,       0,       0
 6.390, 0.0915000 , -0.1627000, 9.6864000, 29.3350000,  33.7372000, 35.6674000, -38.2850000, -12.7190000, 7.3460000, 101219.340000,       0,       0,       0
 6.400, 0.0760000 , -0.1663000, 9.6804000, 29.1214000,  33.8974000, 35.9116000, -38.2430000, -12.8200000, 6.7670000, 101219.340000,       0,       0,       0
 6.410, 0.0580000 , -0.1627000, 9.6744000, 29.0985000,  33.7906000, 36.0031000, -38.2830000, -13.0470000, 7.2090000, 101219.790000,       0,       0,       0
 6.420, 0.0461000 , -0.1483000, 9.6696000, 29.2587000,  33.4244000, 35.9650000, -38.2640000, -12.8620000, 7.2570000, 101219.790000,       0,       0,       0
 6.430, 0.0425000 , -0.1220000, 9.6660000, 29.4724000,  32.9132000, 35.8734000, -38.4720000, -12.8350000, 7.9730000, 101223.350000,       0,       0,       0
 6.440, 0.0532000 , -0.0945000, 9.6636000, 29.6707000,  32.4860000, 35.8276000, -38.1620000, -12.8390000, 8.1700000, 101223.350000,       0,       0,       0
 6.450, 0.0676000 , -0.0742000, 9.6648000, 29.8615000,  32.3181000, 35.9039000, -38.4250000, -12.7660000, 8.5440000, 101223.460000,       0,       0,       0
 6.460, 0.0784000 , -0.0598000, 9.6684000, 29.9911000,  32.4097000, 36.0641000, -38.0740000, -12.7730000, 8.0720000, 101223.460000,       0,       0,       0
 6.470, 0.0879000 , -0.0502000, 9.6720000, 29.9683000,  32.6920000, 36.1938000, -38.3180000, -12.7160000, 8.2780000, 101218.080000,       0,       0,       0
 6.480, 0.0999000 , -0.0598000, 9.6756000, 29.7928000,  33.0811000, 36.2320000, -38.1950000, -12.4850000, 8.0910000, 101218.080000,       0,       0,       0
 6.490, 0.1023000 , -0.0933000, 9.6768000, 29.6021000,  33.4625000, 36.1786000, -38.1580000, -12.6780000, 8.1950000, 101219.920000,       0,       0,       0
 6.500, 0.0891000 , -0.1436000, 9.6768000, 29.5563000,  33.6914000, 36.0260000, -38.1450000, -12.8440000, 7.6120000, 101219.920000,       0,       0,       0
 6.510, 0.0700000 , -0.1890000, 9.6708000, 29.7546000,  33.5999000, 35.7742000, -38.2120000, -12.8540000, 7.9970000, 101221.410000,       0,       0,       0
 6.520, 0.0329000 , -0.2022000, 9.6672000, 30.1437000,  33.1650000, 35.4538000, -38.0390000, -12.6940000, 7.5570000, 101221.410000,       0,       0,       0
 6.530, 0.0281000 , -0.1806000, 9.6660000, 30.5939000,  32.5470000, 35.1028000, -38.3650000, -12.6770000, 7.8300000, 101220.130000,       0,       0,       0
 6.540, 0.0473000 , -0.1400000, 9.6708000, 30.9448000,  31.9672000, 34.7672000, -38.5180000, -12.6810000, 7.4520000, 101220.130000,       0,       0,       0
 6.550, 0.0688000 , -0.1101000, 9.6816000, 30.9219000,  31.7383000, 34.6451000, -38.2120000, -12.7240000, 7.3850000, 101221.880000,       0,       0,       0
 6.560, 0.0915000 , -0.1089000, 9.6911000, 30.4871000,  31.9595000, 34.9045000, -38.2200000, -12.9270000, 7.2500000, 101221.880000,       0,       0,       0
 6.570, 0.1083000 , -0.1328000, 9.6935000, 29.8615000,  32.5470000, 35.4843000, -38.4030000, -12.7870000, 7.7420000, 101221.430000,       0,       0,       0
 6.580, 0.1166000 , -0.1759000, 9.6911000, 29.3274000,  33.2642000, 36.0947000, -38.2780000, -12.6830000, 6.9050000, 101221.430000,       0,       0,       0
 6.590, 0.1011000 , -0.2082000, 9.6852000, 29.0222000,  33.7372000, 36.4609000, -38.1990000, -12.9190000, 7.0720000, 101219.760000,       0,       0,       0
 6.600, 0.0676000 , -0.2237000, 9.6804000, 29.0070000,  33.8440000, 36.4380000, -38.3840000, -12.8900000, 7.1560000, 101219.760000,       0,       0,       0
 6.610, 0.0544000 , -0.2117000, 9.6732000, 29.2358000,  33.6914000, 36.0641000, -38.4750000, -12.6870000, 7.7470000, 101223.300000,       0,       0,       0
 6.620, 0.0461000 , -0.1735000, 9.6696000, 29.6249000,  33.3328000, 35.5301000, -38.3070000, -12.6630000, 6.8990000, 101223.300000,       0,       0,       0
 6.630, 0.0449000 , -0.1184000, 9.6684000, 30.0140000,  32.9666000, 35.0723000, -38.3560000, -12.5460000, 7.2490000, 101223.160000,       0,       0,       0
 6.640, 0.0484000 , -0.0646000, 9.6696000, 30.2200000,  32.6462000, 34.8663000, -38.2610000, -12.5450000, 7.4340000, 101223.160000,       0,       0,       0
 6.650, 0.0592000 , -0.0263000, 9.6720000, 30.1971000,  32.3639000, 34.9655000, -38.0450000, -12.5360000, 7.7230000, 101221.550000,       0,       0,       0
 6.660, 0.0640000 , -0.0371000, 9.6744000, 30.1437000,  32.3410000, 35.1486000, -38.4940000, -12.7280000, 7.0390000, 101221.550000,       0,       0,       0
 6.670, 0.0688000 , -0.0694000, 9.6756000, 30.1285000,  32.3486000, 35.2249000, -38.4980000, -12.9690000, 7.6720000, 101223.100000,       0,       0,       0
 6.680, 0.0700000 , -0.1065000, 9.6768000, 30.1743000,  32.3334000, 35.1105000, -38.4290000, -12.5690000, 7.6060000, 101223.100000,       0,       0,       0
 6.690, 0.0712000 , -0.1352000, 9.6756000, 30.2887000,  32.2495000, 34.8206000, -38.2340000, -12.5240000, 7.5280000, 101220.660000,       0,       0,       0
 6.700, 0.0736000 , -0.1483000, 9.6756000, 30.4489000,  32.1426000, 34.4696000, -38.3660000, -12.8000000, 7.3030000, 101220.660000,       0,       0,       0
 6.710, 0.0760000 , -0.1448000, 9.6756000, 30.5634000,  32.0587000, 34.2331000, -38.2020000, -12.5490000, 6.6940000, 101221.880000,       0,       0,       0
 6.720, 0.0843000 , -0.1316000, 9.6756000, 30.5786000,  32.1121000, 34.1949000, -38.4000000, -12.5690000, 7.3260000, 101221.880000,       0,       0,       0
 6.730, 0.0903000 , -0.1160000, 9.6792000, 30.4184000,  32.3486000, 34.4086000, -38.5970000, -12.7390000, 7.3000000, 101219.950000,       0,       0,       0
 6.740, 0.0915000 , -0.1041000, 9.6852000, 29.9911000,  32.7682000, 34.9045000, -38.2980000, -12.9970000, 7.7760000, 101219.950000,       0,       0,       0
 6.750, 0.0867000 , -0.1017000, 9.6875000, 29.3961000,  33.2489000, 35.5988000, -38.2960000, -12.6940000, 7.7780000, 101221.800000,       0,       0,       0
 6.760, 0.0772000 , -0.1113000, 9.6840000, 28.8315000,  33.6380000, 36.2854000, -38.0940000, -12.6850000, 7.9180000, 101221.800000,       0,       0,       0
 6.770, 0.0616000 , -0.1292000, 9.6780000, 28.4729000,  33.7753000, 36.7661000, -38.1530000, -12.7730000, 7.5690000, 101222.590000,       0,       0,       0
 6.780, 0.0508000 , -0.1459000, 9.6720000, 28.4042000,  33.6227000, 36.9110000, -38.0520000, -12.8220000, 7.3300000, 101222.590000,       0,       0,       0
 6.790, 0.0496000 , -0.1555000, 9.6684000, 28.6102000,  33.2642000, 36.7584000, -38.0880000, -12.7640000, 7.9140000, 101220.880000,       0,       0,       0
 6.800, 0.0568000 , -0.1519000, 9.6696000, 28.9536000,  32.8903000, 36.3998000, -38.1910000, -12.6600000, 7.8500000, 101220.880000,       0,       0,       0
 6.810, 0.0724000 , -0.1364000, 9.6732000, 29.2664000,  32.6920000, 35.9955000, -38.1710000, -12.9140000, 7.6660000, 101220.770000,       0,       0,       0
 6.820, 0.0819000 , -0.1220000, 9.6792000, 29.4418000,  32.6996000, 35.6903000, -38.0280000, -12.9500000, 7.2280000, 101220.770000,       0,       0,       0
 6.830, 0.0843000 , -0.1125000, 9.6840000, 29.4495000,  32.8522000, 35.5072000, -38.2120000, -13.1200000, 7.9340000, 101221.640000,       0,       0,       0
 6.840, 0.0796000 , -0.1113000, 9.6816000, 29.3579000,  33.0276000, 35.3775000, -38.1480000, -12.9190000, 7.3370000, 101221.640000,       0,       0,       0
 6.850, 0.0664000 , -0.1136000, 9.6780000, 29.2740000,  33.1039000, 35.2554000, -37.9160000, -12.7290000, 6.8260000, 101220.010000,       0,       0,       0
 6.860, 0.0461000 , -0.1220000, 9.6732000, 29.3121000,  32.9361000, 35.2020000, -38.0410000, -12.7390000, 7.2630000, 101220.010000,       0,       0,       0
 6.870, 0.0317000 , -0.1244000, 9.6708000, 29.4800000,  32.5851000, 35.2325000, -38.1130000, -12.7610000, 7.6930000, 101220.440000,       0,       0,       0
 6.880, 0.0329000 , -0.1196000, 9.6684000, 29.7241000,  32.1579000, 35.2859000, -37.6840000, -12.8980000, 7.4310000, 101220.440000,       0,       0,       0
 6.890, 0.0484000 , -0.1113000, 9.6672000, 29.9835000,  31.7764000, 35.3012000, -38.4350000, -12.9130000, 7.8150000, 101223.580000,       0,       0,       0
 6.900, 0.0736000 , -0.1101000, 9.6708000, 30.1514000,  31.5857000, 35.2554000, -38.2920000, -12.9480000, 7.9850000, 101223.580000,       0,       0,       0
 6.910, 0.0987000 , -0.1208000, 9.6768000, 30.1514000,  31.7001000, 35.1944000, -38.4060000, -12.7400000, 7.8860000, 101220.130000,       0,       0,       0
 6.920, 0.1095000 , -0.1448000, 9.6852000, 29.9454000,  32.0969000, 35.2325000, -38.3030000, -12.9020000, 7.9000000, 101220.130000,       0,       0,       0
 6.930, 0.1107000 , -0.1771000, 9.6887000, 29.5639000,  32.6462000, 35.4309000, -38.3660000, -12.7430000, 7.5970000, 101220.230000,       0,       0,       0
 6.940, 0.1047000 , -0.2094000, 9.6852000, 29.2206000,  33.2031000, 35.7437000, -38.1340000, -12.8600000, 7.5820000, 101220.230000,       0,       0,       0
 6.950, 0.0879000 , -0.2249000, 9.6816000, 29.0680000,  33.6075000, 36.0260000, -38.0020000, -12.7580000, 7.0510000, 101219.700000,       0,       0,       0
 6.960, 0.0712000 , -0.2094000, 9.6768000, 29.1061000,  33.7143000, 36.1404000, -38.3480000, -12.8610000, 7.5150000, 101219.700000,       0,       0,       0
 6.970, 0.0544000 , -0.1711000, 9.6732000, 29.2130000,  33.5236000, 36.1099000, -38.4810000, -12.9740000, 8.0150000, 101220.460000,       0,       0,       0
 6.980, 0.0437000 , -0.1292000, 9.6720000, 29.3350000,  33.1955000, 36.0413000, -38.1490000, -12.9120000, 7.4730000, 101220.460000,       0,       0,       0
 6.990, 0.0473000 , -0.0957000, 9.6708000, 29.4724000,  32.8674000, 35.9955000, -38.3920000, -12.8690000, 7.6430000, 101222.760000,       0,       0,       0
 7.000, 0.0616000 , -0.0706000, 9.6720000, 29.5868000,  32.6004000, 35.9268000, -38.3790000, -12.9850000, 7.5720000, 101222.760000,       0,       0,       0
 7.010, 0.0760000 , -0.0670000, 9.6744000, 29.6021000,  32.5012000, 35.8353000, -38.4420000, -12.8050000, 7.8340000, 101218.500000,       0,       0,       0
 7.020, 0.0819000 , -0.0873000, 9.6756000, 29.5258000,  32.5623000, 35.7819000, -38.5310000, -12.6640000, 7.0930000, 101218.500000,       0,       0,       0
 7.030, 0.0819000 , -0.1184000, 9.6792000, 29.4647000,  32.6920000, 35.7971000, -38.1690000, -12.8960000, 7.3740000, 101220.590000,       0,       0,       0
 7.040, 0.0796000 , -0.1471000, 9.6792000, 29.4800000,  32.8293000, 35.8429000, -38.3910000, -12.9470000, 6.6730000, 101220.590000,       0,       0,       0
 7.050, 0.0712000 , -0.1579000, 9.6780000, 29.5410000,  32.8751000, 35.8353000, -38.3620000, -12.7670000, 7.5570000, 101220.770000,       0,       0,       0
 7.060, 0.0592000 , -0.1519000, 9.6744000, 29.6021000,  32.7911000, 35.7666000, -38.3580000, -12.5760000, 6.8080000, 101220.770000,       0,       0,       0
 7.070, 0.0508000 , -0.1352000, 9.6720000, 29.6631000,  32.5928000, 35.6903000, -38.0540000, -12.6580000, 7.0520000, 101222.460000,       0,       0,       0
 7.080, 0.0544000 , -0.1232000, 9.6684000, 29.7623000,  32.3486000, 35.6750000, -38.5210000, -12.5900000, 7.0160000, 101222.460000,       0,       0,       0
 7.090, 0.0676000 , -0.1160000, 9.6696000, 29.9301000,  32.2189000, 35.7513000, -38.3580000, -12.7280000, 6.8520000, 101219.950000,       0,       0,       0
 7.100, 0.0867000 , -0.1184000, 9.6732000, 30.0369000,  32.3486000, 35.8887000, -38.1390000, -12.9440000, 7.2260000, 101219.950000,       0,       0,       0
 7.110, 0.1083000 , -0.1340000, 9.6792000, 29.9454000,  32.7530000, 36.0947000, -38.2270000, -12.4440000, 7.0180000, 101220.440000,       0,       0,       0
 7.120, 0.1226000 , -0.1603000, 9.6840000, 29.6936000,  33.3557000, 36.3388000, -38.4300000, -12.6050000, 6.9810000, 101220.440000,       0,       0,       0
 7.130, 0.1226000 , -0.1854000, 9.6852000, 29.4571000,  34.0500000, 36.5601000, -38.6670000, -12.8650000, 6.9150000, 101219.820000,       0,       0,       0
 7.140, 0.1107000 , -0.2046000, 9.6852000, 29.2969000,  34.5993000, 36.6287000, -38.1540000, -12.8310000, 7.3520000, 101219.820000,       0,       0,       0
 7.150, 0.0951000 , -0.2189000, 9.6792000, 29.1977000,  34.8587000, 36.5601000, -38.2850000, -12.5530000, 7.6190000, 101220.520000,       0,       0,       0
 7.160, 0.0461000 , -0.2129000, 9.6768000, 29.2282000,  34.6527000, 36.3617000, -38.3380000, -12.7800000, 7.1610000, 101220.520000,       0,       0,       0
 7.170, 0.0197000 , -0.1938000, 9.6708000, 29.4647000,  34.1873000, 36.1023000, -38.4040000, -12.4650000, 7.2690000, 101222.350000,       0,       0,       0
 7.180, 0.0078000 , -0.1615000, 9.6696000, 29.7699000,  33.6075000, 35.8658000, -38.4720000, -12.4320000, 7.5620000, 101222.350000,       0,       0,       0
 7.190, 0.0114000 , -0.1232000, 9.6732000, 29.9759000,  33.0200000, 35.6598000, -38.5950000, -12.6350000, 7.3630000, 101222.410000,       0,       0,       0
 7.200, 0.0437000 , -0.0825000, 9.6792000, 29.9759000,  32.6614000, 35.4004000, -38.4620000, -12.6300000, 7.6640000, 101222.410000,       0,       0,       0
 7.210, 0.0592000 , -0.0754000, 9.6828000, 29.7852000,  32.7301000, 35.3241000, -38.2130000, -12.4090000, 7.5460000, 101222.470000,       0,       0,       0
 7.220, 0.0676000 , -0.0873000, 9.6816000, 29.5563000,  32.9208000, 35.3317000, -38.1630000, -12.6600000, 7.2950000, 101222.470000,       0,       0,       0
 7.230, 0.0640000 , -0.1101000, 9.6780000, 29.4495000,  33.1039000, 35.3546000, -38.3690000, -12.3930000, 7.3180000, 101219.900000,       0,       0,       0
 7.240, 0.0508000 , -0.1316000, 9.6744000, 29.4800000,  33.1650000, 35.3317000, -38.2140000, -12.5030000, 7.3360000, 101219.900000,       0,       0,       0
 7.250, 0.0413000 , -0.1412000, 9.6720000, 29.6402000,  33.0276000, 35.2097000, -38.2550000, -12.5590000, 7.1270000, 101221.170000,       0,       0,       0
 7.260, 0.0449000 , -0.1436000, 9.6708000, 29.8767000,  32.8369000, 35.0037000, -38.1400000, -12.7800000, 7.5050000, 101221.170000,       0,       0,       0
 7.270, 0.0544000 , -0.1436000, 9.6744000, 30.0980000,  32.7225000, 34.8053000, -38.2660000, -12.8070000, 7.5560000, 101220.570000,       0,       0,       0
 7.280, 0.0712000 , -0.1459000, 9.6780000, 30.2124000,  32.7835000, 34.6756000, -37.9200000, -12.6750000, 7.3210000, 101220.570000,       0,       0,       0
 7.290, 0.0819000 , -0.1483000, 9.6804000, 30.2048000,  33.0811000, 34.6680000, -38.2560000, -12.9770000, 7.2620000, 101223.100000,       0,       0,       0
 7.300, 0.0807000 , -0.1471000, 9.6828000, 30.0903000,  33.4854000, 34.7443000, -38.2390000, -12.6800000, 7.1130000, 101223.100000,       0,       0,       0
 7.310, 0.0664000 , -0.1471000, 9.6840000, 29.8920000,  33.7982000, 34.8663000, -38.4860000, -12.8990000, 7.3980000, 101222.160000,       0,       0,       0
 7.320, 0.0413000 , -0.1471000, 9.6816000, 29.7012000,  33.8440000, 34.9808000, -38.4700000, -12.4230000, 7.1160000, 101222.160000,       0,       0,       0
 7.330, 0.0126000 , -0.1483000, 9.6768000, 29.6860000,  33.5236000, 35.0418000, -38.4380000, -12.5200000, 7.6310000, 101223.230000,       0,       0,       0
 7.340, -0.0006000, -0.1448000, 9.6708000, 29.8920000,  32.8827000, 34.9884000, -38.3790000, -12.7480000, 7.5480000, 101223.230000,       0,       0,       0
 7.350, 0.0090000 , -0.1340000, 9.6684000, 30.2353000,  32.1655000, 34.7824000, -38.2560000, -12.8100000, 7.4360000, 101222.280000,       0,       0,       0
 7.360, 0.0293000 , -0.1172000, 9.6720000, 30.5099000,  31.6544000, 34.5306000, -38.5840000, -12.6380000, 7.6100000, 101222.280000,       0,       0,       0
 7.370, 0.0532000 , -0.1089000, 9.6792000, 30.5176000,  31.4865000, 34.4238000, -38.3150000, -12.5040000, 7.6950000, 101219.820000,       0,       0,       0
 7.380, 0.0640000 , -0.1208000, 9.6852000, 30.3192000,  31.6467000, 34.5764000, -38.1240000, -12.7150000, 7.4600000, 101219.820000,       0,       0,       0
 7.390, 0.0640000 , -0.1448000, 9.6887000, 30.0064000,  31.8985000, 34.8969000, -38.6750000, -12.5650000, 7.6270000, 101220.640000,       0,       0,       0
 7.400, 0.0616000 , -0.1615000, 9.6875000, 29.6478000,  32.1579000, 35.1562000, -38.4940000, -12.7640000, 7.6090000, 101220.640000,       0,       0,       0
 7.410, 0.0532000 , -0.1663000, 9.6828000, 29.3579000,  32.2647000, 35.2554000, -38.4340000, -12.8250000, 7.7040000, 101219.940000,       0,       0,       0
 7.420, 0.0461000 , -0.1567000, 9.6768000, 29.2435000,  32.1655000, 35.2249000, -38.3120000, -12.4510000, 8.1380000, 101219.940000,       0,       0,       0
 7.430, 0.0449000 , -0.1340000, 9.6708000, 29.3121000,  31.9824000, 35.1562000, -38.5030000, -12.5210000, 8.2200000, 101220.670000,       0,       0,       0
 7.440, 0.0556000 , -0.1065000, 9.6672000, 29.5334000,  31.8604000, 35.1181000, -38.4180000, -12.4060000, 7.7430000, 101220.670000,       0,       0,       0
 7.450, 0.0700000 , -0.0885000, 9.6672000, 29.8233000,  31.9290000, 35.1181000, -38.3820000, -12.5860000, 7.7090000, 101221.710000,       0,       0,       0
 7.460, 0.0819000 , -0.0945000, 9.6684000, 30.1056000,  32.1121000, 35.1257000, -38.5040000, -12.5440000, 7.8800000, 101221.710000,       0,       0,       0
 7.470, 0.0843000 , -0.1160000, 9.6720000, 30.2887000,  32.3486000, 35.1410000, -38.4090000, -12.6200000, 7.9640000, 101222.170000,       0,       0,       0
 7.480, 0.0819000 , -0.1400000, 9.6780000, 30.3345000,  32.6538000, 35.1944000, -38.2710000, -12.4320000, 8.2770000, 101222.170000,       0,       0,       0
 7.490, 0.0724000 , -0.1567000, 9.6816000, 30.2658000,  32.8674000, 35.3088000, -38.1480000, -12.4790000, 7.8770000, 101223.570000,       0,       0,       0
 7.500, 0.0604000 , -0.1627000, 9.6816000, 30.1514000,  32.9132000, 35.4843000, -38.0800000, -12.9720000, 7.4100000, 101223.570000,       0,       0,       0
 7.510, 0.0508000 , -0.1603000, 9.6780000, 30.0674000,  32.8064000, 35.6293000, -38.4830000, -12.8300000, 7.9940000, 101219.940000,       0,       0,       0
 7.520, 0.0437000 , -0.1459000, 9.6768000, 30.0293000,  32.5089000, 35.6827000, -38.4240000, -12.2770000, 8.2160000, 101219.940000,       0,       0,       0
 7.530, 0.0484000 , -0.1220000, 9.6744000, 29.9606000,  32.1884000, 35.6369000, -38.6710000, -12.5970000, 8.2140000, 101220.480000,       0,       0,       0
 7.540, 0.0568000 , -0.1017000, 9.6756000, 29.8538000,  32.0129000, 35.6216000, -38.4690000, -12.6160000, 7.2420000, 101220.480000,       0,       0,       0
 7.550, 0.0688000 , -0.0921000, 9.6768000, 29.7470000,  32.0206000, 35.7056000, -38.6000000, -12.8190000, 7.3700000, 101220.470000,       0,       0,       0
 7.560, 0.0819000 , -0.0957000, 9.6792000, 29.6097000,  32.2037000, 35.8047000, -38.2520000, -12.6130000, 7.4630000, 101220.470000,       0,       0,       0
 7.570, 0.0879000 , -0.1172000, 9.6816000, 29.4495000,  32.4402000, 35.8124000, -38.0880000, -12.7650000, 7.3160000, 101221.740000,       0,       0,       0
 7.580, 0.0831000 , -0.1436000, 9.6816000, 29.3427000,  32.6157000, 35.6598000, -38.2980000, -12.8390000, 7.3100000, 101221.740000,       0,       0,       0
 7.590, 0.0712000 , -0.1639000, 9.6792000, 29.3732000,  32.5928000, 35.3622000, -38.3380000, -12.6860000, 7.8960000, 101220.870000,       0,       0,       0
 7.600, 0.0568000 , -0.1699000, 9.6732000, 29.5105000,  32.3486000, 35.0418000, -38.2120000, -12.4510000, 7.0980000, 101220.870000,       0,       0,       0
 7.610, 0.0484000 , -0.1591000, 9.6684000, 29.7699000,  31.9748000, 34.8587000, -38.3940000, -12.6120000, 7.4610000, 101220.740000,       0,       0,       0
 7.620, 0.0508000 , -0.1376000, 9.6696000, 30.1208000,  31.6010000, 34.8282000, -38.4780000, -12.5670000, 7.5220000, 101220.740000,       0,       0,       0
 7.630, 0.0700000 , -0.1089000, 9.6744000, 30.3650000,  31.4178000, 34.8969000, -38.4130000, -12.5960000, 7.3630000, 101224.090000,       0,       0,       0
 7.640, 0.0927000 , -0.0861000, 9.6780000, 30.3574000,  31.4941000, 34.9274000, -38.4200000, -12.6740000, 7.2360000, 101224.090000,       0,       0,       0
 7.650, 0.1023000 , -0.0825000, 9.6828000, 30.1285000,  31.7688000, 34.9274000, -38.2290000, -12.7980000, 7.2340000, 101219.520000,       0,       0,       0
 7.660, 0.1011000 , -0.1017000, 9.6852000, 29.7699000,  32.1045000, 34.9655000, -38.5970000, -12.5720000, 7.0320000, 101219.520000,       0,       0,       0
 7.670, 0.0963000 , -0.1328000, 9.6840000, 29.4342000,  32.3792000, 35.1028000, -38.4390000, -12.8370000, 7.3230000, 101224.020000,       0,       0,       0
 7.680, 0.0891000 , -0.1687000, 9.6804000, 29.2511000,  32.5851000, 35.3394000, -38.2710000, -12.5820000, 7.5980000, 101224.020000,       0,       0,       0
 7.690, 0.0843000 , -0.1926000, 9.6780000, 29.2358000,  32.6920000, 35.6140000, -38.4080000, -12.6480000, 6.9530000, 101220.810000,       0,       0,       0
 7.700, 0.0867000 , -0.1950000, 9.6768000, 29.3350000,  32.7682000, 35.7819000, -38.1110000, -12.5930000, 7.8620000, 101220.810000,       0,       0,       0
 7.710, 0.0927000 , -0.1782000, 9.6756000, 29.4876000,  32.8598000, 35.7208000, -38.2610000, -12.8020000, 7.2190000, 101222.160000,       0,       0,       0
 7.720, 0.0999000 , -0.1543000, 9.6744000, 29.6326000,  32.9590000, 35.4538000, -38.3650000, -12.3460000, 7.9050000, 101222.160000,       0,       0,       0
 7.730, 0.0951000 , -0.1232000, 9.6744000, 29.7012000,  33.0734000, 34.9197000, -38.1770000, -12.4950000, 7.4790000, 101224.250000,       0,       0,       0
 7.740, 0.0819000 , -0.1172000, 9.6756000, 29.6707000,  33.0276000, 34.6756000, -38.3580000, -12.3960000, 7.3940000, 101224.250000,       0,       0,       0
 7.750, 0.0724000 , -0.1208000, 9.6756000, 29.6326000,  32.8751000, 34.5688000, -38.4290000, -12.4890000, 7.2290000, 101221.930000,       0,       0,       0
 7.760, 0.0640000 , -0.1292000, 9.6744000, 29.6021000,  32.6843000, 34.6451000, -38.4370000, -12.1240000, 7.1050000, 101221.930000,       0,       0,       0
 7.770, 0.0604000 , -0.1352000, 9.6732000, 29.6097000,  32.4860000, 34.8740000, -38.1690000, -12.6300000, 7.1360000, 101222.350000,       0,       0,       0
 7.780, 0.0652000 , -0.1376000, 9.6720000, 29.6555000,  32.3105000, 35.1257000, -38.3500000, -12.6760000, 6.7400000, 101222.350000,       0,       0,       0
 7.790, 0.0724000 , -0.1292000, 9.6732000, 29.7165000,  32.2342000, 35.3088000, -38.3030000, -12.6150000, 7.4840000, 101222.950000,       0,       0,       0
 7.800, 0.0819000 , -0.1160000, 9.6732000, 29.7546000,  32.2037000, 35.3546000, -38.4380000, -12.5490000, 7.3420000, 101222.950000,       0,       0,       0
 7.810, 0.0891000 , -0.1065000, 9.6732000, 29.8004000,  32.2342000, 35.3165000, -38.4120000, -12.4870000, 7.1700000, 101223.380000,       0,       0,       0
 7.820, 0.0915000 , -0.1017000, 9.6744000, 29.8462000,  32.2876000, 35.2554000, -38.2340000, -12.4080000, 6.9090000, 101223.380000,       0,       0,       0
 7.830, 0.0939000 , -0.1053000, 9.6780000, 29.8843000,  32.3410000, 35.1791000, -38.4260000, -12.6870000, 7.3840000, 101221.930000,       0,       0,       0
 7.840, 0.0951000 , -0.1172000, 9.6816000, 29.8462000,  32.3944000, 35.1181000, -38.3140000, -12.3730000, 7.0770000, 101221.930000,       0,       0,       0
 7.850, 0.0927000 , -0.1352000, 9.6828000, 29.7165000,  32.5089000, 35.1639000, -38.4370000, -12.4990000, 6.6740000, 101222.410000,       0,       0,       0
 7.860, 0.0927000 , -0.1543000, 9.6828000, 29.5486000,  32.6843000, 35.3470000, -38.2250000, -12.5000000, 6.7750000, 101222.410000,       0,       0,       0
 7.870, 0.0879000 , -0.1711000, 9.6816000, 29.4113000,  32.8674000, 35.6216000, -38.6900000, -12.4650000, 7.2340000, 101219.940000,       0,       0,       0
 7.880, 0.0867000 , -0.1759000, 9.6804000, 29.2969000,  32.9895000, 35.8658000, -38.5420000, -12.6020000, 6.9970000, 101219.940000,       0,       0,       0
 7.890, 0.0831000 , -0.1711000, 9.6768000, 29.2358000,  33.0124000, 35.9573000, -38.5680000, -12.2550000, 6.4900000, 101220.520000,       0,       0,       0
 7.900, 0.0807000 , -0.1627000, 9.6720000, 29.2969000,  32.9208000, 35.8887000, -38.6500000, -12.4100000, 7.4330000, 101220.520000,       0,       0,       0
 7.910, 0.0807000 , -0.1483000, 9.6720000, 29.4876000,  32.7301000, 35.6827000, -38.7070000, -12.6180000, 7.6070000, 101223.980000,       0,       0,       0
 7.920, 0.0819000 , -0.1232000, 9.6720000, 29.6631000,  32.4783000, 35.4233000, -38.9470000, -12.8020000, 7.4570000, 101223.980000,       0,       0,       0
 7.930, 0.0867000 , -0.1041000, 9.6744000, 29.7012000,  32.2723000, 35.2020000, -38.6950000, -12.5910000, 6.5060000, 101224.190000,       0,       0,       0
 7.940, 0.0915000 , -0.0993000, 9.6768000, 29.6707000,  32.1884000, 35.1257000, -38.4810000, -12.7070000, 7.1440000, 101224.190000,       0,       0,       0
 7.950, 0.0939000 , -0.1053000, 9.6792000, 29.6478000,  32.2037000, 35.1715000, -38.2380000, -12.6210000, 7.3400000, 101222.510000,       0,       0,       0
 7.960, 0.0903000 , -0.1172000, 9.6780000, 29.6555000,  32.2113000, 35.2402000, -38.8960000, -12.4980000, 7.0510000, 101222.510000,       0,       0,       0
 7.970, 0.0843000 , -0.1328000, 9.6768000, 29.7012000,  32.1655000, 35.2554000, -38.6020000, -12.7570000, 6.9370000, 101223.980000,       0,       0,       0
 7.980, 0.0819000 , -0.1448000, 9.6780000, 29.7623000,  32.0816000, 35.2325000, -38.7590000, -13.0440000, 7.4200000, 101223.980000,       0,       0,       0
 7.990, 0.0819000 , -0.1483000, 9.6792000, 29.7928000,  31.9519000, 35.2020000, -38.6630000, -12.7240000, 7.1180000, 101220.920000,       0,       0,       0
 8.000, 0.0927000 , -0.1483000, 9.6768000, 29.8004000,  31.8451000, 35.2097000, -38.6810000, -12.9660000, 7.6080000, 101220.920000,       0,       0,       0
 8.010, 0.1071000 , -0.1459000, 9.6756000, 29.8157000,  31.9061000, 35.2478000, -38.5350000, -12.7760000, 7.5110000, 101224.360000,       0,       0,       0
 8.020, 0.1214000 , -0.1436000, 9.6768000, 29.8004000,  32.1732000, 35.3394000, -38.6280000, -12.8610000, 7.4580000, 101224.360000,       0,       0,       0
 8.030, 0.1262000 , -0.1495000, 9.6780000, 29.7394000,  32.5623000, 35.4843000, -38.5970000, -12.7370000, 7.4400000, 101220.640000,       0,       0,       0
 8.040, 0.1262000 , -0.1663000, 9.6792000, 29.6936000,  32.9895000, 35.5988000, -38.5030000, -12.9440000, 7.4550000, 101220.640000,       0,       0,       0
 8.050, 0.1238000 , -0.1794000, 9.6780000, 29.6631000,  33.3710000, 35.5606000, -38.3450000, -13.0020000, 7.6800000, 101218.550000,       0,       0,       0
 8.060, 0.1142000 , -0.1806000, 9.6768000, 29.6631000,  33.6151000, 35.3394000, -38.4040000, -12.9240000, 6.9780000, 101218.550000,       0,       0,       0
 8.070, 0.0963000 , -0.1687000, 9.6756000, 29.6860000,  33.6533000, 35.0418000, -38.7500000, -13.0350000, 7.4140000, 101220.480000,       0,       0,       0
 8.080, 0.0796000 , -0.1495000, 9.6744000, 29.7318000,  33.4854000, 34.8053000, -38.3270000, -12.8390000, 7.4520000, 101220.480000,       0,       0,       0
 8.090, 0.0724000 , -0.1280000, 9.6720000, 29.8462000,  33.2184000, 34.6451000, -38.5110000, -12.9240000, 7.0790000, 101221.480000,       0,       0,       0
 8.100, 0.0712000 , -0.1077000, 9.6720000, 30.0064000,  32.9208000, 34.5688000, -38.7560000, -13.3140000, 7.2040000, 101221.480000,       0,       0,       0
 8.110, 0.0748000 , -0.0957000, 9.6720000, 30.1590000,  32.6462000, 34.5688000, -38.6690000, -13.2330000, 7.4340000, 101220.870000,       0,       0,       0
 8.120, 0.0819000 , -0.0933000, 9.6744000, 30.2582000,  32.4631000, 34.6222000, -38.6120000, -12.7520000, 7.1020000, 101220.870000,       0,       0,       0
 8.130, 0.0903000 , -0.0993000, 9.6768000, 30.2734000,  32.4097000, 34.7061000, -38.4820000, -12.8950000, 7.8030000, 101221.200000,       0,       0,       0
 8.140, 0.0987000 , -0.1101000, 9.6780000, 30.1819000,  32.4402000, 34.8129000, -38.7280000, -12.7470000, 7.4080000, 101221.200000,       0,       0,       0
 8.150, 0.1023000 , -0.1292000, 9.6780000, 30.0217000,  32.5470000, 34.9274000, -38.6620000, -12.5870000, 7.7270000, 101222.040000,       0,       0,       0
 8.160, 0.0999000 , -0.1507000, 9.6780000, 29.8767000,  32.6767000, 35.0571000, -38.4630000, -12.8900000, 7.8520000, 101222.040000,       0,       0,       0
 8.170, 0.0891000 , -0.1711000, 9.6780000, 29.7470000,  32.7377000, 35.1944000, -38.6220000, -12.5750000, 8.1190000, 101217.770000,       0,       0,       0
 8.180, 0.0831000 , -0.1830000, 9.6792000, 29.6783000,  32.7530000, 35.3622000, -38.4060000, -12.8760000, 7.9550000, 101217.770000,       0,       0,       0
 8.190, 0.0951000 , -0.1735000, 9.6780000, 29.7012000,  32.7301000, 35.4462000, -38.4000000, -12.9990000, 7.7430000, 101220.640000,       0,       0,       0
 8.200, 0.1119000 , -0.1519000, 9.6780000, 29.7928000,  32.7606000, 35.3546000, -38.4240000, -12.4770000, 7.1850000, 101220.640000,       0,       0,       0
 8.210, 0.1214000 , -0.1304000, 9.6804000, 29.8462000,  32.9208000, 35.1639000, -38.6780000, -12.8540000, 7.7590000, 101223.080000,       0,       0,       0
 8.220, 0.1238000 , -0.1077000, 9.6792000, 29.8233000,  33.1726000, 34.9731000, -38.6100000, -12.7790000, 7.5460000, 101223.080000,       0,       0,       0
 8.230, 0.1202000 , -0.1053000, 9.6768000, 29.7852000,  33.4244000, 34.8587000, -38.3330000, -12.7520000, 7.8140000, 101222.560000,       0,       0,       0
 8.240, 0.0927000 , -0.1304000, 9.6756000, 29.9225000,  33.4854000, 34.8969000, -38.5950000, -12.6500000, 8.0880000, 101222.560000,       0,       0,       0
 8.250, 0.0652000 , -0.1531000, 9.6768000, 30.1285000,  33.2870000, 35.0647000, -38.5060000, -12.4150000, 8.0500000, 101224.410000,       0,       0,       0
 8.260, 0.0592000 , -0.1603000, 9.6768000, 30.3116000,  32.7606000, 35.3622000, -38.4390000, -12.5130000, 7.3790000, 101224.410000,       0,       0,       0
 8.270, 0.0700000 , -0.1543000, 9.6780000, 30.3650000,  32.3410000, 35.5759000, -38.5560000, -12.4660000, 7.6230000, 101220.640000,       0,       0,       0
 8.280, 0.0867000 , -0.1412000, 9.6792000, 30.3726000,  32.1274000, 35.7590000, -38.6100000, -12.4490000, 6.9460000, 101220.640000,       0,       0,       0
 8.290, 0.1059000 , -0.1220000, 9.6828000, 30.3040000,  32.0511000, 35.7971000, -38.4910000, -12.5370000, 7.4920000, 101220.640000,       0,       0,       0
 8.300, 0.1226000 , -0.1053000, 9.6852000, 30.1590000,  32.1884000, 35.6750000, -38.5830000, -12.8310000, 6.8700000, 101220.640000,       0,       0,       0
 8.310, 0.1274000 , -0.0969000, 9.6852000, 29.9911000,  32.4707000, 35.4385000, -38.2740000, -12.8940000, 7.1180000, 101220.640000,       0,       0,       0
 8.320, 0.1214000 , -0.1017000, 9.6828000, 29.8386000,  32.7454000, 35.1868000, -38.4550000, -12.8390000, 7.8720000, 101220.640000,       0,       0,       0
 8.330, 0.1107000 , -0.1136000, 9.6792000, 29.7318000,  32.9437000, 34.9884000, -38.5250000, -12.4990000, 8.1640000, 101221.310000,       0,       0,       0
 8.340, 0.0927000 , -0.1280000, 9.6768000, 29.7241000,  33.0048000, 34.9045000, -38.4370000, -12.9140000, 7.1660000, 101221.310000,       0,       0,       0
 8.350, 0.0772000 , -0.1328000, 9.6756000, 29.7852000,  32.9056000, 34.9503000, -38.4540000, -12.8810000, 7.2230000, 101222.770000,       0,       0,       0
 8.360, 0.0712000 , -0.1292000, 9.6756000, 29.8309000,  32.8217000, 35.0418000, -38.4160000, -12.6410000, 7.3160000, 101222.770000,       0,       0,       0
