time,accel_x,accel_y,accel_z,gyro_x,gyro_y,gyro_z,mag_x,mag_y,mag_z,baro,gps_lat,gps_lon,gps_alt
0.793,0.0179000,0.0138000,9.6672000,57.4875000,57.9834000,58.8913000,-41.2590000,-13.4050000,4.1860000,101224.630000,0,0,0
0.803,0.0096000,0.0114000,9.6552000,57.4493000,57.9987000,58.7845000,-41.1240000,-13.1900000,4.1420000,101224.630000,0,0,0
0.813,0.0012000,0.0090000,9.6493000,57.4112000,57.8232000,58.7540000,-40.9240000,-13.2190000,4.2980000,101219.310000,0,0,0
0.823,-0.0048000,0.0102000,9.6505000,57.3883000,57.5943000,58.7845000,-40.8580000,-13.0890000,4.2970000,101219.310000,0,0,0
0.833,-0.0036000,0.0114000,9.6576000,57.3654000,57.4341000,58.8760000,-40.6890000,-13.1980000,4.0970000,101223.100000,0,0,0
0.843,0.0000000,0.0114000,9.6624000,57.3502000,57.4036000,58.9905000,-41.1940000,-13.1090000,3.7840000,101223.100000,0,0,0
0.853,0.0048000,0.0102000,9.6660000,57.3349000,57.4799000,59.0973000,-40.6020000,-12.9880000,3.9480000,101218.850000,0,0,0
0.863,0.0084000,0.0102000,9.6684000,57.3349000,57.6401000,59.1736000,-40.8170000,-13.1560000,4.5650000,101218.850000,0,0,0
0.873,0.0096000,0.0102000,9.6684000,57.3425000,57.7774000,59.2117000,-41.0200000,-12.9560000,4.0610000,101221.050000,0,0,0
0.883,0.0084000,0.0126000,9.6648000,57.3578000,57.8461000,59.2117000,-40.8630000,-13.0940000,4.8080000,101221.050000,0,0,0
0.893,0.0072000,0.0150000,9.6612000,57.3730000,57.8308000,59.1812000,-40.9210000,-13.2090000,4.3980000,101223.220000,0,0,0
0.903,0.0084000,0.0173000,9.6624000,57.3883000,57.7850000,59.1431000,-40.7840000,-13.3080000,4.5830000,101223.220000,0,0,0
0.913,0.0084000,0.0197000,9.6624000,57.3959000,57.7621000,59.1431000,-41.0370000,-13.3470000,4.2650000,101221.250000,0,0,0
0.923,0.0072000,0.0197000,9.6612000,57.4036000,57.7621000,59.0820000,-40.7820000,-13.2640000,4.0790000,101221.250000,0,0,0
0.933,0.0060000,0.0161000,9.6600000,57.4036000,57.7545000,59.0744000,-40.9580000,-13.2820000,3.9850000,101223.220000,0,0,0
0.943,0.0060000,0.0138000,9.6612000,57.3959000,57.7545000,59.0744000,-40.6550000,-13.3950000,4.6080000,101223.220000,0,0,0
0.953,0.0060000,0.0102000,9.6624000,57.3883000,57.7774000,59.0820000,-41.1760000,-13.0340000,4.3680000,101224.590000,0,0,0
0.963,0.0060000,0.0090000,9.6612000,57.3883000,57.7774000,59.0820000,-41.0280000,-13.1160000,4.4000000,101224.590000,0,0,0
0.973,0.0072000,0.0078000,9.6600000,57.3959000,57.7316000,59.0820000,-40.8790000,-13.4620000,4.3650000,101227.050000,0,0,0
0.983,0.0084000,0.0078000,9.6600000,57.4036000,57.6782000,59.0897000,-40.7310000,-13.2410000,4.3160000,101227.050000,0,0,0
0.993,0.0108000,0.0078000,9.6624000,57.3959000,57.6553000,59.0897000,-40.8490000,-13.2590000,4.3610000,101219.360000,0,0,0
1.003,0.0108000,0.0090000,9.6636000,57.3883000,57.6553000,59.0897000,-40.8150000,-13.2750000,4.4040000,101219.360000,0,0,0
1.013,0.0096000,0.0090000,9.6624000,57.3807000,57.6706000,59.0897000,-41.1420000,-13.2090000,4.0750000,101224.640000,0,0,0
1.023,0.0084000,0.0114000,9.6612000,57.3730000,57.7011000,59.0973000,-41.0070000,-13.5180000,4.1810000,101224.640000,0,0,0
1.033,0.0084000,0.0126000,9.6612000,57.3730000,57.7316000,59.1049000,-40.9680000,-13.5150000,4.9580000,101222.380000,0,0,0
1.043,0.0096000,0.0126000,9.6612000,57.3654000,57.7621000,59.1125000,-40.9730000,-13.5700000,4.3290000,101222.380000,0,0,0
1.053,0.0108000,0.0138000,9.6600000,57.3730000,57.7621000,59.1202000,-41.1700000,-13.3010000,4.3450000,101222.670000,0,0,0
1.063,0.0120000,0.0126000,9.6600000,57.3807000,57.7469000,59.1125000,-41.0350000,-13.2960000,4.8070000,101222.670000,0,0,0
1.073,0.0120000,0.0114000,9.6600000,57.3883000,57.7164000,59.1049000,-40.9690000,-13.2720000,4.3570000,101225.470000,0,0,0
1.083,0.0120000,0.0114000,9.6612000,57.3959000,57.6859000,59.0973000,-41.0480000,-13.2790000,4.7420000,101225.470000,0,0,0
1.093,0.0132000,0.0126000,9.6636000,57.3883000,57.6859000,59.0897000,-41.3550000,-13.0860000,4.5530000,101221.420000,0,0,0
1.103,0.0144000,0.0126000,9.6648000,57.3883000,57.7393000,59.0897000,-41.2570000,-13.1220000,4.7340000,101221.420000,0,0,0
1.113,0.0144000,0.0150000,9.6648000,57.3883000,57.8232000,59.0897000,-41.0640000,-13.3600000,4.5910000,101219.340000,0,0,0
1.123,0.0132000,0.0138000,9.6648000,57.3883000,57.8995000,59.0897000,-40.8120000,-13.3230000,4.7410000,101219.340000,0,0,0
1.133,0.0132000,0.0126000,9.6636000,57.3883000,57.9300000,59.0820000,-40.8350000,-13.1160000,4.4680000,101221.460000,0,0,0
1.143,0.0120000,0.0114000,9.6624000,57.3883000,57.9071000,59.0744000,-41.2200000,-13.2730000,4.5110000,101221.460000,0,0,0
1.153,0.0120000,0.0114000,9.6624000,57.3959000,57.8232000,59.0744000,-41.0760000,-13.2790000,4.3530000,101223.860000,0,0,0
1.163,0.0120000,0.0126000,9.6636000,57.3959000,57.7469000,59.0668000,-40.9270000,-13.1650000,4.3120000,101223.860000,0,0,0
1.173,0.0132000,0.0150000,9.6624000,57.3959000,57.6706000,59.0668000,-40.7350000,-13.4890000,4.4790000,101221.780000,0,0,0
1.183,0.0120000,0.0161000,9.6612000,57.3883000,57.6553000,59.0744000,-40.9880000,-13.2620000,4.7090000,101221.780000,0,0,0
1.193,0.0096000,0.0150000,9.6600000,57.3730000,57.5943000,59.0820000,-40.6610000,-12.9840000,4.2760000,101222.200000,0,0,0
1.203,0.0096000,0.0126000,9.6600000,57.3654000,57.5485000,59.0897000,-40.9330000,-13.1360000,4.0130000,101222.200000,0,0,0
1.213,0.0108000,0.0090000,9.6588000,57.3654000,57.4951000,59.0973000,-40.8990000,-13.2740000,4.1790000,101223.000000,0,0,0
1.223,0.0132000,0.0078000,9.6612000,57.3730000,57.4722000,59.0973000,-40.7800000,-13.0960000,4.6460000,101223.000000,0,0,0
1.233,0.0167000,0.0078000,9.6648000,57.3730000,57.5256000,59.1049000,-40.9240000,-13.5290000,4.5330000,101223.210000,0,0,0
1.243,0.0179000,0.0090000,9.6672000,57.3654000,57.6477000,59.1125000,-40.9200000,-13.1650000,4.8530000,101223.210000,0,0,0
1.253,0.0179000,0.0126000,9.6672000,57.3578000,57.8003000,59.1202000,-40.8880000,-13.1260000,5.1220000,101223.780000,0,0,0
1.263,0.0156000,0.0150000,9.6636000,57.3502000,57.9071000,59.1278000,-40.5830000,-13.4080000,4.6260000,101223.780000,0,0,0
1.273,0.0144000,0.0150000,9.6600000,57.3502000,57.9376000,59.1278000,-40.7550000,-13.2940000,4.7020000,101225.510000,0,0,0
1.283,0.0132000,0.0138000,9.6576000,57.3502000,57.8690000,59.1278000,-40.8790000,-13.2530000,4.6130000,101225.510000,0,0,0
1.293,0.0132000,0.0126000,9.6576000,57.3578000,57.7393000,59.1202000,-40.6030000,-13.2850000,4.1400000,101221.570000,0,0,0
1.303,0.0144000,0.0114000,9.6612000,57.3654000,57.6553000,59.1202000,-40.6550000,-13.3800000,5.0000000,101221.570000,0,0,0
1.313,0.0156000,0.0102000,9.6648000,57.3730000,57.6477000,59.1202000,-40.6190000,-13.5530000,4.2520000,101219.230000,0,0,0
1.323,0.0167000,0.0090000,9.6672000,57.3730000,57.7240000,59.1278000,-40.5240000,-13.1980000,4.9830000,101219.230000,0,0,0
1.333,0.0156000,0.0078000,9.6660000,57.3807000,57.8079000,59.1354000,-40.5870000,-13.4920000,4.9870000,101219.380000,0,0,0
1.343,0.0144000,0.0078000,9.6624000,57.3883000,57.8537000,59.1354000,-40.9340000,-13.2660000,4.8330000,101219.380000,0,0,0
1.353,0.0108000,0.0102000,9.6588000,57.3959000,57.8003000,59.1354000,-40.6810000,-13.0040000,4.6470000,101219.310000,0,0,0
1.363,0.0096000,0.0114000,9.6564000,57.4112000,57.6477000,59.1354000,-41.0060000,-13.2440000,3.9050000,101219.310000,0,0,0
1.373,0.0108000,0.0126000,9.6588000,57.4265000,57.4951000,59.1354000,-40.6390000,-13.1340000,3.6610000,101219.030000,0,0,0
1.383,0.0144000,0.0138000,9.6624000,57.4417000,57.4265000,59.1202000,-40.6300000,-13.4630000,4.2590000,101219.030000,0,0,0
1.393,0.0179000,0.0114000,9.6648000,57.4417000,57.4493000,59.1049000,-40.6930000,-13.4970000,4.3300000,101219.310000,0,0,0
1.403,0.0203000,0.0102000,9.6660000,57.4341000,57.5256000,59.0897000,-40.7260000,-13.3370000,3.9230000,101219.310000,0,0,0
1.413,0.0203000,0.0090000,9.6636000,57.4341000,57.6172000,59.0897000,-40.4330000,-13.3730000,4.3970000,101218.960000,0,0,0
1.423,0.0191000,0.0078000,9.6636000,57.4341000,57.6706000,59.0820000,-40.6820000,-13.4440000,4.2960000,101218.960000,0,0,0
1.433,0.0167000,0.0078000,9.6600000,57.4341000,57.6477000,59.0820000,-40.7850000,-13.4380000,3.8060000,101222.360000,0,0,0
1.443,0.0167000,0.0090000,9.6588000,57.4341000,57.5714000,59.0744000,-40.7090000,-13.3330000,3.8450000,101222.360000,0,0,0
1.453,0.0191000,0.0102000,9.6612000,57.4265000,57.5333000,59.0820000,-40.7200000,-13.1150000,3.8300000,101221.990000,0,0,0
1.463,0.0227000,0.0114000,9.6636000,57.4188000,57.5943000,59.0820000,-40.5820000,-13.2570000,3.7610000,101221.990000,0,0,0
1.473,0.0251000,0.0102000,9.6660000,57.4036000,57.7316000,59.0897000,-40.8900000,-13.4370000,3.8410000,101221.500000,0,0,0
1.483,0.0239000,0.0090000,9.6660000,57.3959000,57.8918000,59.0973000,-40.3050000,-13.1370000,3.9750000,101221.500000,0,0,0
1.493,0.0203000,0.0078000,9.6624000,57.3883000,57.9834000,59.0973000,-40.6930000,-13.4900000,4.1040000,101219.660000,0,0,0
1.503,0.0179000,0.0078000,9.6612000,57.3883000,57.9910000,59.0973000,-40.7920000,-13.3670000,4.2140000,101219.660000,0,0,0
1.513,0.0167000,0.0078000,9.6600000,57.3883000,57.9681000,59.0973000,-40.7050000,-13.1500000,4.1500000,101219.310000,0,0,0
1.523,0.0167000,0.0078000,9.6600000,57.3883000,57.9224000,59.0973000,-40.9870000,-13.2970000,4.6430000,101219.310000,0,0,0
1.533,0.0179000,0.0078000,9.6600000,57.3883000,57.8690000,59.0897000,-40.8100000,-13.4930000,4.0320000,101221.700000,0,0,0
1.543,0.0179000,0.0066000,9.6600000,57.3959000,57.8308000,59.0897000,-40.7700000,-13.3240000,4.2720000,101221.700000,0,0,0
1.553,0.0179000,0.0066000,9.6612000,57.3959000,57.8156000,59.0897000,-41.0190000,-13.3440000,4.1140000,101219.400000,0,0,0
1.563,0.0179000,0.0078000,9.6612000,57.4036000,57.8079000,59.0897000,-40.9080000,-13.4630000,4.0800000,101219.400000,0,0,0
1.573,0.0167000,0.0090000,9.6624000,57.4112000,57.7850000,59.0820000,-40.8890000,-13.2190000,4.2420000,101222.730000,0,0,0
1.583,0.0167000,0.0114000,9.6636000,57.4036000,57.7774000,59.0820000,-40.5890000,-13.0060000,3.7270000,101222.730000,0,0,0
1.593,0.0167000,0.0126000,9.6648000,57.4036000,57.7927000,59.0897000,-40.7880000,-13.1260000,3.8670000,101219.040000,0,0,0
1.603,0.0167000,0.0114000,9.6636000,57.4036000,57.8003000,59.0897000,-40.9210000,-13.3100000,3.2760000,101219.040000,0,0,0
1.613,0.0167000,0.0114000,9.6636000,57.4036000,57.7850000,59.0820000,-40.8300000,-13.3840000,3.8240000,101219.460000,0,0,0
1.623,0.0179000,0.0114000,9.6624000,57.3959000,57.7621000,59.0820000,-40.9530000,-13.0480000,3.2920000,101219.460000,0,0,0
1.633,0.0191000,0.0114000,9.6624000,57.3959000,57.7316000,59.0820000,-40.5530000,-13.1330000,4.1270000,101222.340000,0,0,0
1.643,0.0203000,0.0126000,9.6612000,57.4036000,57.7087000,59.0820000,-40.8820000,-13.5730000,4.4890000,101222.340000,0,0,0
1.653,0.0215000,0.0126000,9.6612000,57.4036000,57.7087000,59.0744000,-40.7240000,-13.3120000,4.9500000,101219.480000,0,0,0
1.663,0.0215000,0.0126000,9.6624000,57.4036000,57.7316000,59.0668000,-40.7520000,-13.1320000,4.8200000,101219.480000,0,0,0
1.673,0.0215000,0.0126000,9.6636000,57.3959000,57.7698000,59.0668000,-40.7860000,-13.4120000,4.4580000,101224.450000,0,0,0
1.683,0.0203000,0.0114000,9.6636000,57.3883000,57.8003000,59.0820000,-40.5340000,-13.4460000,4.6900000,101224.450000,0,0,0
1.693,0.0191000,0.0102000,9.6600000,57.3807000,57.7850000,59.0897000,-40.5880000,-13.4200000,4.7460000,101221.500000,0,0,0
1.703,0.0191000,0.0114000,9.6576000,57.3883000,57.7621000,59.0973000,-40.5930000,-13.2810000,4.6430000,101221.500000,0,0,0
1.713,0.0191000,0.0114000,9.6552000,57.3883000,57.7011000,59.0973000,-40.8720000,-13.2760000,4.5030000,101219.380000,0,0,0
1.723,0.0215000,0.0126000,9.6552000,57.3959000,57.6248000,59.1049000,-40.7730000,-13.4330000,4.8080000,101219.380000,0,0,0
1.733,0.0239000,0.0126000,9.6576000,57.3959000,57.5867000,59.0973000,-40.4670000,-13.3200000,4.3330000,101219.310000,0,0,0
1.743,0.0263000,0.0114000,9.6624000,57.4036000,57.6172000,59.0820000,-40.2990000,-13.3600000,4.1400000,101219.310000,0,0,0
1.753,0.0275000,0.0114000,9.6648000,57.3883000,57.7011000,59.0744000,-40.4980000,-13.3230000,3.6070000,101220.550000,0,0,0
1.763,0.0263000,0.0114000,9.6660000,57.3883000,57.8003000,59.0668000,-40.7680000,-13.3140000,4.2740000,101220.550000,0,0,0
1.773,0.0239000,0.0126000,9.6648000,57.3807000,57.8842000,59.0668000,-40.7340000,-13.3450000,3.9710000,101223.150000,0,0,0
1.783,0.0227000,0.0126000,9.6636000,57.3730000,57.9529000,59.0744000,-40.2800000,-13.3630000,3.8150000,101223.150000,0,0,0
1.793,0.0215000,0.0126000,9.6624000,57.3730000,57.9681000,59.0820000,-40.6030000,-13.2140000,3.1590000,101219.340000,0,0,0
1.803,0.0215000,0.0138000,9.6612000,57.3807000,57.9376000,59.0897000,-40.6930000,-13.2900000,3.9290000,101219.340000,0,0,0
1.813,0.0203000,0.0138000,9.6588000,57.3959000,57.8690000,59.0820000,-40.7600000,-13.1910000,4.3390000,101219.400000,0,0,0
1.823,0.0203000,0.0138000,9.6588000,57.4036000,57.7927000,59.0744000,-40.6450000,-13.3200000,4.3150000,101219.400000,0,0,0
1.833,0.0215000,0.0126000,9.6612000,57.4112000,57.7393000,59.0744000,-40.8280000,-13.3380000,3.7630000,101219.310000,0,0,0
1.843,0.0227000,0.0114000,9.6612000,57.4188000,57.7393000,59.0744000,-40.7510000,-13.2680000,4.7210000,101219.310000,0,0,0
1.853,0.0239000,0.0102000,9.6624000,57.4112000,57.7850000,59.0820000,-40.6550000,-13.0710000,4.4530000,101219.310000,0,0,0
1.863,0.0239000,0.0090000,9.6624000,57.4036000,57.8613000,59.0820000,-40.9160000,-12.8230000,4.0520000,101219.310000,0,0,0
1.873,0.0227000,0.0090000,9.6612000,57.3883000,57.9300000,59.0973000,-40.4370000,-13.3980000,3.4360000,101221.500000,0,0,0
1.883,0.0191000,0.0090000,9.6600000,57.3883000,57.9453000,59.1049000,-40.8220000,-13.5260000,4.1740000,101221.500000,0,0,0
1.893,0.0191000,0.0102000,9.6600000,57.3883000,57.9147000,59.1049000,-40.7880000,-13.2480000,4.6860000,101220.550000,0,0,0
1.903,0.0191000,0.0114000,9.6612000,57.3883000,57.8690000,59.1049000,-40.6680000,-13.0560000,4.2230000,101220.550000,0,0,0
1.913,0.0191000,0.0114000,9.6624000,57.3959000,57.8079000,59.0973000,-40.8170000,-13.2120000,5.1750000,101224.590000,0,0,0
1.923,0.0203000,0.0126000,9.6624000,57.4036000,57.7393000,59.0820000,-40.7580000,-13.1960000,4.1040000,101224.590000,0,0,0
1.933,0.0203000,0.0126000,9.6636000,57.4112000,57.6782000,59.0744000,-40.6700000,-13.3810000,4.1030000,101219.300000,0,0,0
1.943,0.0215000,0.0126000,9.6660000,57.4112000,57.6782000,59.0668000,-40.7430000,-13.4110000,4.3070000,101219.300000,0,0,0
1.953,0.0227000,0.0114000,9.6672000,57.4112000,57.7316000,59.0668000,-40.8170000,-13.6150000,4.3180000,101223.760000,0,0,0
1.963,0.0239000,0.0090000,9.6660000,57.4036000,57.8156000,59.0744000,-41.0360000,-13.3900000,4.0450000,101223.760000,0,0,0
1.973,0.0227000,0.0078000,9.6648000,57.3959000,57.8766000,59.0820000,-40.9430000,-13.7120000,3.7250000,101219.170000,0,0,0
1.983,0.0215000,0.0078000,9.6624000,57.3959000,57.8918000,59.0820000,-40.8500000,-13.3170000,3.8870000,101219.170000,0,0,0
1.993,0.0203000,0.0090000,9.6600000,57.3959000,57.8537000,59.0897000,-40.5300000,-13.4050000,3.9930000,101221.780000,0,0,0
2.003,0.0191000,0.0090000,9.6588000,57.4112000,57.7621000,59.0820000,-40.6840000,-13.4390000,4.1370000,101221.780000,0,0,0
2.013,0.0191000,0.0102000,9.6600000,57.4188000,57.6477000,59.0820000,-40.7880000,-13.1390000,4.0970000,101221.270000,0,0,0
2.023,0.0203000,0.0102000,9.6612000,57.4265000,57.5714000,59.0820000,-40.8210000,-13.1890000,3.4770000,101221.270000,0,0,0
2.033,0.0227000,0.0102000,9.6636000,57.4265000,57.5943000,59.0744000,-40.9310000,-13.3630000,4.0590000,101219.400000,0,0,0
2.043,0.0251000,0.0090000,9.6660000,57.4188000,57.6859000,59.0744000,-40.7990000,-13.2800000,3.8810000,101219.400000,0,0,0
2.053,0.0263000,0.0090000,9.6648000,57.4112000,57.7774000,59.0820000,-40.6680000,-13.0540000,4.1200000,101218.960000,0,0,0
2.063,0.0251000,0.0102000,9.6612000,57.3959000,57.8232000,59.0897000,-41.0450000,-13.0740000,4.1040000,101218.960000,0,0,0
2.073,0.0227000,0.0090000,9.6588000,57.4036000,57.8003000,59.0897000,-40.9290000,-13.2170000,3.8220000,101224.590000,0,0,0
2.083,0.0215000,0.0090000,9.6588000,57.4112000,57.7545000,59.0820000,-41.1140000,-13.4030000,3.6940000,101224.590000,0,0,0
2.093,0.0227000,0.0090000,9.6600000,57.4265000,57.7240000,59.0820000,-40.8910000,-13.1350000,4.2460000,101223.090000,0,0,0
2.103,0.0251000,0.0102000,9.6624000,57.4341000,57.7240000,59.0668000,-40.6370000,-13.3470000,4.5620000,101223.090000,0,0,0
2.113,0.0263000,0.0126000,9.6648000,57.4417000,57.7774000,59.0668000,-40.7670000,-13.7010000,4.5960000,101219.110000,0,0,0
2.123,0.0263000,0.0126000,9.6660000,57.4417000,57.8537000,59.0591000,-40.5600000,-13.2270000,4.8890000,101219.110000,0,0,0
2.133,0.0239000,0.0114000,9.6648000,57.4417000,57.9300000,59.0591000,-40.5590000,-13.4430000,5.0200000,101219.250000,0,0,0
2.143,0.0215000,0.0114000,9.6636000,57.4341000,57.9910000,59.0591000,-40.6370000,-13.5770000,4.2610000,101219.250000,0,0,0
2.153,0.0179000,0.0102000,9.6624000,57.4265000,57.9910000,59.0363000,-40.6200000,-13.1720000,4.1760000,101226.980000,0,0,0
2.163,0.0179000,0.0102000,9.6624000,57.4188000,57.9453000,59.0591000,-40.4870000,-13.3840000,4.0110000,101226.980000,0,0,0
2.173,0.0203000,0.0102000,9.6612000,57.4036000,57.8766000,59.0591000,-40.5320000,-13.2780000,3.5750000,101222.380000,0,0,0
2.183,0.0215000,0.0126000,9.6612000,57.4036000,57.8079000,59.0591000,-40.7710000,-13.1300000,4.0380000,101222.380000,0,0,0
2.193,0.0227000,0.0138000,9.6612000,57.4036000,57.7621000,59.0591000,-40.8160000,-13.3900000,4.2710000,101223.570000,0,0,0
2.203,0.0251000,0.0150000,9.6636000,57.4112000,57.7850000,59.0515000,-40.9050000,-13.1000000,4.0180000,101223.570000,0,0,0
2.213,0.0263000,0.0161000,9.6660000,57.4036000,57.8690000,59.0439000,-40.8900000,-13.4010000,4.1300000,101222.800000,0,0,0
2.223,0.0239000,0.0161000,9.6648000,57.4036000,57.9376000,59.0439000,-40.5870000,-13.4130000,3.9790000,101222.800000,0,0,0
2.233,0.0215000,0.0138000,9.6600000,57.4036000,57.9300000,59.0439000,-40.5520000,-13.5850000,3.8800000,101222.190000,0,0,0
2.243,0.0191000,0.0114000,9.6576000,57.4036000,57.8613000,59.0439000,-40.8910000,-13.5030000,4.1810000,101222.190000,0,0,0
2.253,0.0191000,0.0090000,9.6588000,57.4188000,57.7774000,59.0439000,-41.0140000,-13.2960000,4.9440000,101221.490000,0,0,0
2.263,0.0215000,0.0090000,9.6612000,57.4265000,57.7240000,59.0363000,-40.8070000,-13.4180000,3.5440000,101221.490000,0,0,0
2.273,0.0263000,0.0102000,9.6648000,57.4265000,57.7621000,59.0286000,-40.4230000,-13.4140000,4.1140000,101220.580000,0,0,0
2.283,0.0287000,0.0114000,9.6648000,57.4188000,57.8308000,59.0286000,-40.5220000,-12.8580000,4.2090000,101220.580000,0,0,0
2.293,0.0299000,0.0114000,9.6672000,57.3959000,58.0521000,59.0286000,-40.9070000,-13.4170000,4.2870000,101221.480000,0,0,0
2.303,0.0275000,0.0114000,9.6648000,57.3883000,58.1589000,59.0439000,-40.8330000,-13.0920000,3.9410000,101221.480000,0,0,0
2.313,0.0251000,0.0114000,9.6624000,57.3807000,58.2199000,59.0668000,-40.6690000,-13.4010000,3.8020000,101222.380000,0,0,0
2.323,0.0203000,0.0114000,9.6612000,57.3883000,58.2581000,59.0820000,-40.7630000,-13.2730000,4.0380000,101222.380000,0,0,0
2.333,0.0179000,0.0114000,9.6588000,57.4112000,58.2199000,59.0973000,-40.8650000,-13.1950000,4.0130000,101224.630000,0,0,0
2.343,0.0203000,0.0126000,9.6612000,57.4265000,58.1894000,59.0973000,-40.5490000,-13.1440000,4.3030000,101224.630000,0,0,0
2.353,0.0227000,0.0138000,9.6636000,57.4341000,58.2275000,59.0897000,-40.8200000,-13.1280000,4.4950000,101219.480000,0,0,0
2.363,0.0251000,0.0138000,9.6684000,57.4417000,58.3572000,59.0668000,-41.1600000,-13.1620000,4.7770000,101219.480000,0,0,0
2.373,0.0227000,0.0126000,9.6708000,57.4341000,58.5175000,59.0439000,-40.7430000,-13.5470000,4.4340000,101219.530000,0,0,0
2.383,0.0167000,0.0114000,9.6672000,57.4188000,58.6166000,59.0363000,-40.8570000,-13.3960000,3.8270000,101219.530000,0,0,0
2.393,0.0096000,0.0114000,9.6612000,57.4112000,58.5861000,59.0439000,-40.6900000,-13.2870000,4.5750000,101221.570000,0,0,0
2.403,0.0036000,0.0126000,9.6564000,57.4036000,58.4106000,59.0515000,-40.6370000,-13.0320000,4.4190000,101221.570000,0,0,0
2.413,0.0036000,0.0126000,9.6564000,57.4112000,58.1894000,59.0591000,-40.7360000,-13.0020000,4.5190000,101221.500000,0,0,0
2.423,0.0072000,0.0150000,9.6588000,57.4188000,58.0215000,59.0515000,-40.7960000,-13.2050000,4.1380000,101221.500000,0,0,0
2.433,0.0084000,0.0395000,-0.0006000,56.6864000,57.2510000,58.6548000,-40.7770000,-13.1790000,3.9260000,101221.420000,0,0,0
2.443,0.0084000,0.0150000,9.6612000,57.4265000,57.8461000,59.0286000,-40.8530000,-13.0690000,3.7630000,101221.420000,0,0,0
2.453,0.0096000,0.0126000,9.6636000,57.4188000,57.8079000,59.0286000,-40.7990000,-13.1580000,4.5580000,101219.210000,0,0,0
2.463,0.0096000,0.0114000,9.6660000,57.4036000,57.8079000,59.0439000,-41.0450000,-13.3840000,4.2070000,101219.210000,0,0,0
2.473,0.0084000,0.0102000,9.6648000,57.3883000,57.8079000,59.0591000,-40.8120000,-13.2650000,4.3350000,101222.920000,0,0,0
2.483,0.0060000,0.0090000,9.6588000,57.3807000,57.7393000,59.0820000,-40.4810000,-13.3340000,3.8610000,101222.920000,0,0,0
2.493,0.0072000,0.0090000,9.6552000,57.3730000,57.6019000,59.0973000,-40.5620000,-13.3160000,3.9700000,101219.360000,0,0,0
2.503,0.0084000,0.0090000,9.6564000,57.3883000,57.4341000,59.1049000,-40.4900000,-13.3940000,4.3020000,101219.360000,0,0,0
2.513,0.0120000,0.0090000,9.6612000,57.3959000,57.3273000,59.1049000,-40.5390000,-13.3130000,4.2010000,101224.640000,0,0,0
2.523,0.0167000,0.0114000,9.6648000,57.4036000,57.3425000,59.1049000,-40.6200000,-13.4240000,4.1790000,101224.640000,0,0,0
2.533,0.0191000,0.0126000,9.6684000,57.4036000,57.4875000,59.0973000,-40.6980000,-13.1500000,4.3190000,101224.590000,0,0,0
2.543,0.0179000,0.0138000,9.6684000,57.3959000,57.6553000,59.0973000,-40.6280000,-13.2810000,4.3810000,101224.590000,0,0,0
2.553,0.0156000,0.0126000,9.6648000,57.3807000,57.7621000,59.0973000,-40.8540000,-13.1980000,4.0550000,101219.400000,0,0,0
2.563,0.0132000,0.0114000,9.6612000,57.3654000,57.7850000,59.0973000,-40.3920000,-13.0510000,4.6500000,101219.400000,0,0,0
2.573,0.0108000,0.0114000,9.6588000,57.3654000,57.7469000,59.1049000,-40.6500000,-13.2820000,4.1970000,101219.310000,0,0,0
2.583,0.0120000,0.0114000,9.6600000,57.3654000,57.6706000,59.1049000,-40.6270000,-13.4020000,4.3740000,101219.310000,0,0,0
2.593,0.0144000,0.0126000,9.6612000,57.3807000,57.6019000,59.0973000,-40.8340000,-13.5450000,4.9970000,101224.590000,0,0,0
2.603,0.0167000,0.0126000,9.6648000,57.3959000,57.5943000,59.0820000,-40.8470000,-13.2720000,4.5030000,101224.590000,0,0,0
2.613,0.0191000,0.0126000,9.6684000,57.4036000,57.6935000,59.0668000,-40.6040000,-13.4800000,4.4090000,101219.400000,0,0,0
2.623,0.0167000,0.0114000,9.6684000,57.4036000,57.8384000,59.0591000,-40.4280000,-13.3520000,4.7290000,101219.400000,0,0,0
2.633,0.0144000,0.0102000,9.6660000,57.4036000,57.9376000,59.0591000,-40.5970000,-13.1490000,4.4200000,101219.230000,0,0,0
2.643,0.0108000,0.0090000,9.6612000,57.4036000,57.9453000,59.0591000,-40.6370000,-13.2320000,4.7110000,101219.230000,0,0,0
2.653,0.0096000,0.0090000,9.6588000,57.4112000,57.8842000,59.0591000,-40.6450000,-13.2710000,4.6930000,101219.680000,0,0,0
2.663,0.0120000,0.0102000,9.6600000,57.4112000,57.8079000,59.0591000,-40.5110000,-13.2000000,4.7700000,101219.680000,0,0,0
2.673,0.0144000,0.0114000,9.6624000,57.4112000,57.7621000,59.0668000,-40.6110000,-12.9040000,4.6910000,101221.920000,0,0,0
2.683,0.0144000,0.0138000,9.6636000,57.3959000,57.7545000,59.0820000,-40.7520000,-13.2910000,4.4030000,101221.920000,0,0,0
2.693,0.0144000,0.0138000,9.6648000,57.3959000,57.7621000,59.0897000,-40.8580000,-13.2250000,4.3880000,101219.340000,0,0,0
2.703,0.0156000,0.0138000,9.6660000,57.3959000,57.7774000,59.0897000,-40.5530000,-13.3500000,4.3180000,101219.340000,0,0,0
2.713,0.0179000,0.0138000,9.6672000,57.3883000,57.8156000,59.0897000,-40.4910000,-13.3090000,4.2960000,101219.380000,0,0,0
2.723,0.0191000,0.0150000,9.6672000,57.3883000,57.8690000,59.0820000,-40.3880000,-13.2910000,4.4250000,101219.380000,0,0,0
2.733,0.0179000,0.0150000,9.6660000,57.3883000,57.9071000,59.0820000,-40.6770000,-13.0860000,3.8270000,101223.680000,0,0,0
2.743,0.0144000,0.0150000,9.6636000,57.3883000,57.8842000,59.0744000,-40.4540000,-13.2860000,4.0470000,101223.680000,0,0,0
2.753,0.0120000,0.0138000,9.6600000,57.3959000,57.7850000,59.0668000,-40.7700000,-13.2590000,4.9450000,101222.550000,0,0,0
2.763,0.0132000,0.0138000,9.6576000,57.4036000,57.6553000,59.0591000,-40.6560000,-13.1730000,4.1300000,101222.550000,0,0,0
2.773,0.0156000,0.0138000,9.6576000,57.4188000,57.5562000,59.0515000,-40.8370000,-13.1250000,3.7530000,101219.310000,0,0,0
2.783,0.0191000,0.0150000,9.6612000,57.4341000,57.5485000,59.0363000,-40.7360000,-13.2100000,3.8270000,101219.310000,0,0,0
2.793,0.0203000,0.0150000,9.6648000,57.4417000,57.6248000,59.0363000,-40.4560000,-13.3530000,3.4980000,101224.740000,0,0,0
2.803,0.0215000,0.0138000,9.6660000,57.4341000,57.7698000,59.0363000,-40.8570000,-13.4030000,3.8780000,101224.740000,0,0,0
2.813,0.0203000,0.0126000,9.6648000,57.4188000,57.8995000,59.0439000,-40.7300000,-13.1610000,4.5080000,101219.660000,0,0,0
2.823,0.0179000,0.0126000,9.6624000,57.4112000,57.9758000,59.0591000,-40.7400000,-13.0620000,4.2220000,101219.660000,0,0,0
2.833,0.0156000,0.0114000,9.6612000,57.4036000,57.9758000,59.0820000,-40.8590000,-13.3330000,4.3280000,101219.450000,0,0,0
2.843,0.0132000,0.0102000,9.6588000,57.4112000,57.8995000,59.0897000,-40.6520000,-13.2910000,4.6820000,101219.450000,0,0,0
2.853,0.0132000,0.0102000,9.6600000,57.4188000,57.7850000,59.0973000,-40.8160000,-13.2250000,4.0110000,101219.310000,0,0,0
2.863,0.0144000,0.0114000,9.6624000,57.4188000,57.6935000,59.0897000,-40.8220000,-13.1810000,4.7020000,101219.310000,0,0,0
2.873,0.0167000,0.0150000,9.6648000,57.4112000,57.6477000,59.0820000,-40.8350000,-13.3520000,4.1600000,101227.130000,0,0,0
2.883,0.0167000,0.0173000,9.6636000,57.4112000,57.6401000,59.0744000,-40.7090000,-13.2120000,4.2100000,101227.130000,0,0,0
2.893,0.0167000,0.0185000,9.6624000,57.4112000,57.6324000,59.0668000,-40.5730000,-13.1460000,4.1440000,101221.940000,0,0,0
2.903,0.0179000,0.0173000,9.6648000,57.4188000,57.6172000,59.0591000,-40.6850000,-12.8990000,4.0200000,101221.940000,0,0,0
2.913,0.0203000,0.0138000,9.6684000,57.4188000,57.6782000,59.0515000,-40.6870000,-13.0600000,3.9710000,101219.660000,0,0,0
2.923,0.0215000,0.0090000,9.6684000,57.4112000,57.7698000,59.0439000,-40.7030000,-13.0680000,4.8960000,101219.660000,0,0,0
2.933,0.0203000,0.0078000,9.6660000,57.4036000,57.8384000,59.0363000,-40.7090000,-13.0090000,4.2890000,101221.420000,0,0,0
2.943,0.0191000,0.0102000,9.6648000,57.3959000,57.8613000,59.0210000,-40.5010000,-13.3110000,3.9270000,101221.420000,0,0,0
2.953,0.0191000,0.0114000,9.6648000,57.3959000,57.8690000,59.0134000,-40.7810000,-13.5140000,4.0220000,101219.400000,0,0,0
2.963,0.0191000,0.0114000,9.6672000,57.3959000,57.8842000,59.0134000,-40.4710000,-13.1590000,3.6810000,101219.400000,0,0,0
2.973,0.0191000,0.0114000,9.6672000,57.3959000,57.9147000,59.0134000,-40.7120000,-13.2430000,4.6190000,101224.590000,0,0,0
2.983,0.0179000,0.0114000,9.6648000,57.3959000,57.9681000,59.0286000,-40.8640000,-13.3960000,4.7930000,101224.590000,0,0,0
2.993,0.0167000,0.0102000,9.6672000,57.3959000,58.0368000,59.0363000,-40.5770000,-12.9280000,4.5100000,101219.660000,0,0,0
3.003,0.0167000,0.0090000,9.6684000,57.3959000,58.1284000,59.0439000,-40.5700000,-13.2010000,5.6950000,101219.660000,0,0,0
3.013,0.0144000,0.0066000,9.6672000,57.3883000,58.2275000,59.0515000,-40.8410000,-13.2370000,5.3200000,101223.880000,0,0,0
3.023,0.0120000,0.0066000,9.6624000,57.3807000,58.2809000,59.0591000,-40.6080000,-12.9520000,4.5570000,101223.880000,0,0,0
3.033,0.0084000,0.0078000,9.6588000,57.3654000,58.2657000,59.0591000,-40.6330000,-13.3430000,4.9620000,101221.790000,0,0,0
3.043,0.0072000,0.0090000,9.6576000,57.3578000,58.1970000,59.0668000,-40.6400000,-13.0990000,4.8760000,101221.790000,0,0,0
3.053,0.0048000,0.0090000,9.6564000,57.3502000,58.0902000,59.0668000,-40.4750000,-13.0340000,4.5310000,101219.530000,0,0,0
3.063,0.0048000,0.0102000,9.6564000,57.3502000,57.9681000,59.0744000,-40.7570000,-13.3530000,4.8960000,101219.530000,0,0,0
3.073,0.0060000,0.0102000,9.6576000,57.3654000,57.8690000,59.0820000,-40.5440000,-13.1180000,4.3820000,101224.480000,0,0,0
3.083,0.0108000,0.0102000,9.6624000,57.3654000,57.8156000,59.0820000,-40.6930000,-12.9590000,4.6010000,101224.480000,0,0,0
3.093,0.0156000,0.0090000,9.6672000,57.3730000,57.8766000,59.0820000,-40.7560000,-13.2810000,5.0130000,101223.050000,0,0,0
3.103,0.0156000,0.0090000,9.6660000,57.3807000,57.9681000,59.0820000,-40.6590000,-13.0950000,4.9430000,101223.050000,0,0,0
3.113,0.0132000,0.0090000,9.6636000,57.3959000,57.9987000,59.0820000,-40.5680000,-13.0780000,4.5090000,101221.680000,0,0,0
3.123,0.0108000,0.0102000,9.6636000,57.4036000,57.9987000,59.0820000,-40.5340000,-13.0360000,4.7280000,101221.680000,0,0,0
3.133,0.0084000,0.0102000,9.6636000,57.4112000,57.9529000,59.0744000,-40.6870000,-13.4120000,4.7120000,101219.550000,0,0,0
3.143,0.0084000,0.0114000,9.6636000,57.4112000,57.8918000,59.0744000,-40.6290000,-13.1380000,4.2720000,101219.550000,0,0,0
3.153,0.0072000,0.0114000,9.6636000,57.4112000,57.8232000,59.0820000,-40.7380000,-13.4490000,3.8380000,101224.670000,0,0,0
3.163,0.0096000,0.0114000,9.6636000,57.4188000,57.7698000,59.0897000,-40.5350000,-13.2170000,4.0280000,101224.670000,0,0,0
3.173,0.0108000,0.0114000,9.6648000,57.4188000,57.7545000,59.0897000,-40.6140000,-13.3540000,4.1440000,101221.700000,0,0,0
3.183,0.0132000,0.0126000,9.6660000,57.4188000,57.7621000,59.0820000,-40.6770000,-13.3440000,4.2060000,101221.700000,0,0,0
3.193,0.0132000,0.0126000,9.6660000,57.4265000,57.7850000,59.0744000,-40.5790000,-13.1820000,3.9250000,101222.380000,0,0,0
3.203,0.0132000,0.0138000,9.6660000,57.4341000,57.8232000,59.0668000,-40.4640000,-13.1240000,3.6630000,101222.380000,0,0,0
3.213,0.0120000,0.0138000,9.6660000,57.4341000,57.8384000,59.0668000,-40.8620000,-13.3940000,3.9660000,101221.890000,0,0,0
3.223,0.0132000,0.0126000,9.6672000,57.4265000,57.8537000,59.0668000,-40.8530000,-13.4490000,3.6520000,101221.890000,0,0,0
3.233,0.0132000,0.0126000,9.6660000,57.4112000,57.8537000,59.0820000,-40.7620000,-13.0260000,3.6620000,101223.770000,0,0,0
3.243,0.0132000,0.0114000,9.6648000,57.4112000,57.8461000,59.0897000,-40.6270000,-13.3660000,3.9580000,101223.770000,0,0,0
3.253,0.0120000,0.0114000,9.6648000,57.4112000,57.8232000,59.0973000,-40.6310000,-13.4270000,4.2020000,101223.100000,0,0,0
3.263,0.0120000,0.0114000,9.6672000,57.4112000,57.8232000,59.0973000,-40.7600000,-12.9750000,4.4020000,101223.100000,0,0,0
3.273,0.0132000,0.0114000,9.6708000,57.4112000,57.8842000,59.0897000,-40.8620000,-12.9980000,4.5580000,101227.410000,0,0,0
3.283,0.0132000,0.0114000,9.6720000,57.4036000,57.9987000,59.0897000,-40.7790000,-13.2950000,4.1680000,101227.410000,0,0,0
3.293,0.0120000,0.0114000,9.6708000,57.4036000,58.1131000,59.0820000,-40.9200000,-13.2800000,4.5440000,101223.090000,0,0,0
3.303,0.0108000,0.0126000,9.6672000,57.4036000,58.1818000,59.0744000,-40.7470000,-13.1630000,4.1320000,101223.090000,0,0,0
3.313,0.0072000,0.0138000,9.6612000,57.4112000,58.1818000,59.0744000,-40.6560000,-13.5180000,4.1040000,101219.790000,0,0,0
3.323,0.0048000,0.0138000,9.6552000,57.4265000,58.0826000,59.0668000,-40.5690000,-13.3080000,4.0180000,101219.790000,0,0,0
3.333,0.0036000,0.0138000,9.6517000,57.4417000,57.9071000,59.0591000,-40.8780000,-13.2730000,3.7800000,101221.920000,0,0,0
3.343,0.0036000,0.0138000,9.6541000,57.4570000,57.7164000,59.0591000,-40.7580000,-13.2450000,3.9640000,101221.920000,0,0,0
3.353,0.0060000,0.0138000,9.6612000,57.4570000,57.5943000,59.0591000,-40.6940000,-13.2180000,4.3610000,101219.470000,0,0,0
3.363,0.0084000,0.0126000,9.6672000,57.4417000,57.5790000,59.0668000,-40.9350000,-12.9920000,3.8900000,101219.470000,0,0,0
3.373,0.0108000,0.0114000,9.6696000,57.4188000,57.6477000,59.0820000,-40.6550000,-13.2790000,3.1880000,101219.400000,0,0,0
3.383,0.0120000,0.0102000,9.6696000,57.4036000,57.7698000,59.0973000,-40.8450000,-13.2900000,3.8710000,101219.400000,0,0,0
3.393,0.0108000,0.0090000,9.6660000,57.3883000,57.8995000,59.1202000,-40.8920000,-13.0500000,4.3020000,101224.670000,0,0,0
3.403,0.0108000,0.0090000,9.6636000,57.3883000,57.9147000,59.1202000,-40.7970000,-13.1840000,3.7290000,101224.670000,0,0,0
3.413,0.0096000,0.0090000,9.6612000,57.3883000,57.8918000,59.1202000,-40.8010000,-13.2390000,3.9530000,101224.940000,0,0,0
3.423,0.0096000,0.0102000,9.6588000,57.3883000,57.8461000,59.1125000,-40.6350000,-13.2660000,4.2980000,101224.940000,0,0,0
3.433,0.0108000,0.0102000,9.6636000,57.3883000,57.8003000,59.0973000,-40.7680000,-13.0910000,5.0100000,101225.120000,0,0,0
3.443,0.0108000,0.0102000,9.6648000,57.3730000,57.8232000,59.0973000,-40.8240000,-13.0600000,4.1050000,101225.120000,0,0,0
3.453,0.0120000,0.0090000,9.6648000,57.3654000,57.8766000,59.1049000,-40.8050000,-13.2870000,4.2760000,101224.790000,0,0,0
3.463,0.0108000,0.0078000,9.6648000,57.3502000,57.9300000,59.1278000,-41.0630000,-13.4800000,3.7080000,101224.790000,0,0,0
3.473,-6.9253000,2.2221000,0.0000000,57.9147000,-167.9153000,43.5257000,-40.6600000,-13.3480000,4.2030000,101219.810000,0,0,0
3.483,0.0072000,0.0114000,9.6624000,57.3349000,57.8918000,59.1583000,-40.8170000,-13.2260000,4.4640000,101219.810000,0,0,0
3.493,0.0072000,0.0126000,9.6624000,57.3425000,57.8308000,59.1660000,-41.0760000,-13.2420000,4.4920000,101224.080000,0,0,0
3.503,0.0072000,0.0138000,9.6636000,57.3578000,57.7774000,59.1583000,-40.7040000,-13.1910000,4.8240000,101224.080000,0,0,0
3.513,0.0096000,0.0126000,9.6672000,57.3730000,57.7545000,59.1507000,-40.8850000,-13.4810000,4.4970000,101224.670000,0,0,0
3.523,0.0120000,0.0126000,9.6672000,57.3807000,57.7774000,59.1431000,-40.9380000,-13.4550000,5.0190000,101224.670000,0,0,0
3.533,0.0120000,0.0126000,9.6648000,57.3959000,57.8079000,59.1278000,-40.4670000,-13.2990000,4.8570000,101224.940000,0,0,0
3.543,0.0108000,0.0114000,9.6624000,57.4036000,57.8003000,59.1125000,-40.4880000,-12.8590000,4.7720000,101224.940000,0,0,0
3.553,0.0084000,0.0102000,9.6600000,57.4188000,57.7698000,59.0973000,-40.6450000,-13.3990000,4.8570000,101223.680000,0,0,0
3.563,0.0060000,0.0090000,9.6588000,57.4265000,57.6859000,59.0897000,-41.0880000,-13.1460000,4.5640000,101223.680000,0,0,0
3.573,0.0048000,0.0090000,9.6588000,57.4341000,57.5714000,59.0897000,-40.9870000,-12.9450000,4.8990000,101227.410000,0,0,0
3.583,0.0048000,0.0090000,9.6588000,57.4341000,57.4341000,59.0973000,-41.0730000,-13.4770000,5.1640000,101227.410000,0,0,0
3.593,0.0072000,0.0102000,9.6612000,57.4417000,57.3196000,59.1049000,-40.4460000,-13.4270000,4.9440000,101219.500000,0,0,0
3.603,0.0120000,0.0102000,9.6696000,57.4493000,57.3273000,59.1125000,-40.8710000,-13.1440000,4.4810000,101219.500000,0,0,0
3.613,0.0060000,0.0197000,9.6816000,57.4341000,57.5943000,59.0668000,-40.6340000,-13.0560000,4.9020000,101221.920000,0,0,0
3.623,-0.0311000,0.0197000,9.6792000,57.4112000,58.0292000,58.5175000,-40.6690000,-13.2420000,4.3190000,101221.920000,0,0,0
3.633,-0.0048000,0.0090000,9.6744000,57.3883000,58.3496000,57.8918000,-40.8550000,-13.0260000,4.5950000,101219.400000,0,0,0
3.643,0.0156000,0.0030000,9.6612000,57.3425000,58.5251000,57.8079000,-40.7520000,-13.4480000,4.1990000,101219.400000,0,0,0
3.653,0.0191000,0.0030000,9.6552000,57.3120000,58.4793000,58.0368000,-41.1480000,-13.2200000,4.2570000,101219.490000,0,0,0
3.663,0.0000000,0.0090000,9.6505000,57.2968000,58.3496000,58.1665000,-40.9020000,-12.9520000,4.0040000,101219.490000,0,0,0
3.673,0.0036000,0.0102000,9.6493000,57.3196000,58.0902000,58.1055000,-41.1600000,-12.8960000,4.3540000,101222.360000,0,0,0
3.683,0.0108000,0.0102000,9.6505000,57.3502000,57.8079000,58.1512000,-40.9610000,-13.1840000,3.5470000,101222.360000,0,0,0
3.693,0.0096000,0.0114000,9.6552000,57.3730000,57.5790000,58.1894000,-41.0610000,-13.5650000,4.3920000,101219.520000,0,0,0
3.703,0.0167000,0.0126000,9.6648000,57.3883000,57.4493000,58.2352000,-40.9670000,-13.5000000,4.2820000,101219.520000,0,0,0
3.713,0.0191000,0.0150000,9.6756000,57.3730000,57.5485000,58.3267000,-40.7500000,-13.1510000,4.3180000,101219.980000,0,0,0
3.723,0.0167000,0.0161000,9.6780000,57.3425000,57.8156000,58.3649000,-40.8460000,-13.2620000,4.4500000,101219.980000,0,0,0
3.733,0.0132000,0.0126000,9.6744000,57.2968000,58.1131000,58.4106000,-40.6780000,-13.3170000,4.2280000,101219.610000,0,0,0
3.743,0.0012000,0.0102000,9.6576000,57.2815000,58.2275000,58.4335000,-40.9410000,-13.2350000,4.3960000,101219.610000,0,0,0
3.753,-0.0036000,0.0078000,9.6433000,57.3196000,57.9529000,58.4106000,-40.8010000,-12.9940000,4.3560000,101223.240000,0,0,0
3.763,0.0024000,0.0102000,9.6433000,57.3883000,57.5104000,58.3954000,-40.9890000,-13.1320000,4.7390000,101223.240000,0,0,0
3.773,0.0096000,0.0138000,9.6529000,57.4493000,57.1671000,58.3801000,-41.1620000,-13.2060000,4.4860000,101223.260000,0,0,0
3.783,0.0191000,0.0161000,9.6672000,57.4722000,57.0374000,58.3725000,-40.9700000,-13.0490000,4.4240000,101223.260000,0,0,0
3.793,0.0275000,0.0161000,9.6768000,57.4646000,57.1671000,58.4106000,-40.5370000,-13.0590000,4.3870000,101223.420000,0,0,0
3.803,0.0287000,0.0138000,9.6756000,57.4493000,57.3730000,58.5175000,-40.8680000,-13.0260000,5.0910000,101223.420000,0,0,0
3.813,0.0203000,0.0114000,9.6744000,57.4036000,57.6401000,58.6472000,-41.1120000,-13.0060000,5.0130000,101221.500000,0,0,0
3.823,0.0072000,0.0090000,9.6660000,57.3730000,57.7621000,58.7082000,-40.7700000,-13.2000000,4.7710000,101221.500000,0,0,0
3.833,0.0012000,0.0078000,9.6529000,57.3730000,57.6782000,58.7082000,-40.8620000,-13.1780000,4.8170000,101224.950000,0,0,0
3.843,0.0048000,0.0054000,9.6457000,57.4036000,57.3502000,58.7234000,-41.1130000,-13.4580000,4.5560000,101224.950000,0,0,0
3.853,0.0156000,0.0054000,9.6505000,57.4341000,57.0526000,58.7769000,-40.8390000,-12.8960000,4.8780000,101223.070000,0,0,0
3.863,0.0299000,0.0078000,9.6636000,57.4417000,56.9611000,58.8531000,-40.7420000,-13.2440000,5.0390000,101223.070000,0,0,0
3.873,0.0383000,0.0102000,9.6744000,57.4188000,57.1594000,58.9371000,-41.1140000,-13.1010000,4.5610000,101219.810000,0,0,0
3.883,0.0395000,0.0114000,9.6768000,57.3883000,57.4722000,59.0210000,-40.9640000,-13.0590000,5.2410000,101219.810000,0,0,0
3.893,0.0347000,0.0126000,9.6744000,57.3425000,57.8003000,59.0820000,-41.0930000,-13.0650000,4.2000000,101225.200000,0,0,0
3.903,0.0275000,0.0114000,9.6720000,57.3196000,58.0444000,59.1354000,-40.8300000,-13.1680000,4.3650000,101225.200000,0,0,0
3.913,0.0156000,0.0090000,9.6600000,57.3120000,58.0673000,59.1736000,-40.8880000,-13.1250000,4.9590000,101225.090000,0,0,0
3.923,0.0132000,0.0090000,9.6576000,57.3196000,57.9834000,59.1736000,-40.7340000,-13.0700000,4.6090000,101225.090000,0,0,0
3.933,0.0084000,0.0102000,9.6541000,57.3425000,57.7545000,59.1583000,-41.0250000,-13.0540000,4.1480000,101227.770000,0,0,0
3.943,-0.0120000,0.0197000,9.6552000,57.3654000,57.5180000,58.9828000,-40.6380000,-13.2250000,4.9520000,101227.770000,0,0,0
3.953,-0.0024000,0.0150000,9.6588000,57.3959000,57.2586000,58.6395000,-40.6920000,-13.5740000,4.7350000,101219.660000,0,0,0
3.963,0.0167000,0.0114000,9.6660000,57.4341000,57.1136000,58.5022000,-40.9200000,-13.3730000,4.8650000,101219.660000,0,0,0
3.973,0.0251000,0.0161000,9.6744000,57.4265000,57.2510000,58.4259000,-40.7810000,-13.4910000,4.8250000,101219.520000,0,0,0
3.983,0.0347000,0.0126000,9.6768000,57.3959000,57.4951000,58.4030000,-40.5620000,-13.6030000,5.0310000,101219.520000,0,0,0
3.993,0.0395000,0.0102000,9.6720000,57.3654000,57.7240000,58.4869000,-40.9340000,-13.2130000,5.6760000,101219.380000,0,0,0
4.003,0.0371000,0.0090000,9.6684000,57.3578000,57.8766000,58.6014000,-40.9750000,-13.4500000,5.3900000,101219.380000,0,0,0
4.013,0.0335000,0.0066000,9.6648000,57.3502000,57.9376000,58.7082000,-40.6550000,-13.3590000,5.3060000,101225.100000,0,0,0
4.023,0.0299000,0.0042000,9.6600000,57.3578000,57.8842000,58.8226000,-40.7330000,-13.1200000,5.2690000,101225.100000,0,0,0
4.033,0.0251000,0.0042000,9.6588000,57.3654000,57.7545000,58.9371000,-40.4330000,-13.2990000,5.1570000,101225.960000,0,0,0
4.043,0.0179000,0.0054000,9.6505000,57.4036000,57.5027000,59.0210000,-40.7330000,-13.4290000,5.3260000,101225.960000,0,0,0
4.053,0.0167000,0.0090000,9.6493000,57.4646000,57.1213000,59.0591000,-40.8590000,-13.3910000,5.4930000,101219.830000,0,0,0
4.063,0.0227000,0.0114000,9.6576000,57.5104000,56.8771000,59.0668000,-40.9720000,-13.1800000,4.7710000,101219.830000,0,0,0
4.073,0.0299000,0.0138000,9.6660000,57.5256000,56.8466000,59.0515000,-40.9480000,-13.2270000,5.2850000,101219.550000,0,0,0
4.083,0.0359000,0.0138000,9.6744000,57.5104000,57.0450000,59.0515000,-41.0580000,-13.4540000,5.0810000,101219.550000,0,0,0
4.093,0.0371000,0.0126000,9.6780000,57.4570000,57.4265000,59.0591000,-40.8180000,-13.0470000,5.4740000,101222.290000,0,0,0
4.103,0.0335000,0.0102000,9.6756000,57.4036000,57.8232000,59.0897000,-40.9440000,-13.4540000,5.1810000,101222.290000,0,0,0
4.113,0.0287000,0.0090000,9.6696000,57.3502000,58.0902000,59.1278000,-40.6540000,-13.4360000,5.4510000,101224.930000,0,0,0
4.123,0.0251000,-0.0191000,-0.0006000,56.6864000,57.2510000,58.6548000,-40.8130000,-13.2650000,5.6040000,101224.930000,0,0,0
4.133,0.0251000,0.0114000,9.6624000,57.3273000,58.1360000,59.1431000,-40.7740000,-13.1470000,5.5600000,101221.860000,0,0,0
4.143,0.0275000,0.0150000,9.6636000,57.3273000,58.1131000,59.1354000,-40.6610000,-13.3430000,4.7970000,101221.860000,0,0,0
4.153,0.0299000,0.0150000,9.6660000,57.3273000,58.1207000,59.1278000,-40.5470000,-13.1840000,5.0090000,101225.810000,0,0,0
4.163,0.0299000,0.0150000,9.6648000,57.3196000,58.1741000,59.1202000,-40.6400000,-13.5580000,4.8380000,101225.810000,0,0,0
4.173,0.0287000,0.0126000,9.6624000,57.3120000,58.2504000,59.1202000,-40.6290000,-13.5040000,4.6700000,101219.660000,0,0,0
4.183,0.0251000,0.0102000,9.6612000,57.3120000,58.2733000,59.1202000,-40.6110000,-13.4640000,4.7360000,101219.660000,0,0,0
4.193,0.0227000,0.0078000,9.6624000,57.3120000,58.2504000,59.1202000,-40.9780000,-12.9560000,4.6370000,101219.660000,0,0,0
4.203,0.0215000,0.0066000,9.6624000,57.3196000,58.2047000,59.1125000,-41.0030000,-13.4120000,5.1450000,101219.660000,0,0,0
4.213,0.0203000,0.0066000,9.6612000,57.3196000,58.2047000,59.1202000,-40.8480000,-13.2220000,5.5570000,101219.830000,0,0,0
4.223,0.0191000,0.0078000,9.6600000,57.3273000,58.1894000,59.1202000,-40.8360000,-12.8280000,5.8010000,101219.830000,0,0,0
4.233,0.0179000,0.0102000,9.6576000,57.3425000,58.1131000,59.1125000,-40.4940000,-13.2670000,5.1740000,101227.550000,0,0,0
4.243,0.0191000,0.0102000,9.6564000,57.3654000,57.9987000,59.1049000,-40.9930000,-13.2520000,5.0120000,101227.550000,0,0,0
4.253,0.0179000,0.0090000,9.6564000,57.3883000,57.8918000,59.0897000,-40.6250000,-13.2920000,4.6150000,101223.690000,0,0,0
4.263,0.0191000,0.0078000,9.6576000,57.3959000,57.8384000,59.0973000,-40.8840000,-13.3650000,4.4560000,101223.690000,0,0,0
4.273,0.0179000,0.0066000,9.6576000,57.3883000,57.8003000,59.1125000,-41.1040000,-13.2560000,4.8690000,101219.830000,0,0,0
4.283,0.0203000,0.0066000,9.6588000,57.3959000,57.7850000,59.1202000,-40.7340000,-13.4870000,4.4450000,101219.830000,0,0,0
4.293,0.0239000,0.0078000,9.6636000,57.3883000,57.8537000,59.1354000,-40.6910000,-13.1210000,4.6430000,101221.410000,0,0,0
4.303,12.2010000,2.9877000,0.0000000,57.6706000,226.6159000,43.5257000,-40.8210000,-13.4010000,3.9730000,101221.410000,0,0,0
4.313,0.0227000,0.0090000,9.6624000,57.3730000,57.9910000,59.1125000,-41.1970000,-13.4850000,4.8780000,101227.410000,0,0,0
4.323,0.0191000,0.0114000,9.6564000,57.3883000,57.8918000,59.0820000,-41.0210000,-13.3670000,4.8680000,101227.410000,0,0,0
4.333,0.0156000,0.0114000,9.6529000,57.4188000,57.6859000,59.0515000,-40.7280000,-13.1520000,4.7440000,101221.770000,0,0,0
4.343,0.0144000,0.0114000,9.6564000,57.4570000,57.4722000,59.0286000,-40.8970000,-13.1200000,4.4370000,101221.770000,0,0,0
4.353,0.0179000,0.0102000,9.6612000,57.4646000,57.3654000,59.0286000,-40.7590000,-13.6130000,4.7710000,101223.910000,0,0,0
4.461,0.0227000,0.0078000,9.6672000,57.4570000,57.3883000,43.5257000,-40.9230000,-13.1730000,3.6710000,101222.810000,0,0,0
4.471,0.0239000,0.0054000,9.6624000,57.4265000,57.7774000,59.0668000,-40.8800000,-13.0880000,3.4950000,101222.810000,0,0,0
4.481,0.0215000,0.0054000,9.6612000,57.4341000,57.7011000,59.0591000,-40.6860000,-13.1810000,3.5030000,101225.230000,0,0,0
4.491,0.0203000,0.0054000,9.6612000,57.4417000,57.6096000,59.0591000,-40.7250000,-13.2840000,3.8440000,101225.230000,0,0,0
4.501,0.0215000,0.0078000,9.6612000,57.4417000,57.5333000,59.0668000,-40.7560000,-13.4230000,3.5730000,101225.160000,0,0,0
4.511,0.0215000,0.0090000,9.6636000,57.4341000,57.4951000,59.0820000,-40.8430000,-13.2740000,3.6390000,101225.160000,0,0,0
4.521,0.0227000,0.0090000,9.6660000,57.4265000,57.5180000,59.0973000,-40.8670000,-13.2970000,3.2800000,101224.690000,0,0,0
4.531,0.0239000,0.0090000,9.6660000,57.4188000,57.5790000,59.1202000,-40.9580000,-12.9290000,3.2730000,101224.690000,0,0,0
4.541,0.0251000,0.0090000,9.6660000,57.4036000,57.6248000,59.1431000,-40.8350000,-13.3940000,3.9020000,101219.660000,0,0,0
4.551,0.0263000,0.0078000,9.6660000,57.3959000,57.6782000,59.1507000,-40.7990000,-13.2940000,3.3320000,101219.660000,0,0,0
4.561,0.0251000,0.0066000,9.6648000,57.4036000,57.7164000,59.1583000,-40.8980000,-13.0410000,3.9030000,101221.930000,0,0,0
4.571,0.0263000,0.0066000,9.6624000,57.4112000,57.7240000,59.1583000,-41.0030000,-13.1750000,3.2050000,101221.930000,0,0,0
4.581,0.0263000,0.0066000,9.6588000,57.4112000,57.7087000,59.1431000,-40.9480000,-13.2700000,3.9280000,101227.550000,0,0,0
4.591,0.0263000,0.0078000,9.6576000,57.4265000,57.6401000,59.1278000,-40.8950000,-13.2680000,3.5780000,101227.550000,0,0,0
4.601,0.0287000,0.0078000,9.6624000,57.4341000,57.6401000,59.1125000,-40.8530000,-13.2120000,4.7100000,101221.790000,0,0,0
4.611,0.0299000,0.0090000,9.6648000,57.4265000,57.7087000,59.1125000,-40.7580000,-13.2100000,4.5140000,101221.790000,0,0,0
4.621,0.0299000,0.0102000,9.6648000,57.4112000,57.7850000,59.1125000,-40.7860000,-13.2810000,4.5170000,101219.830000,0,0,0
4.631,0.0275000,0.0114000,9.6624000,57.4036000,57.8156000,59.1125000,-40.8910000,-13.3140000,4.0170000,101219.830000,0,0,0
4.641,0.0251000,0.0114000,9.6600000,57.4036000,57.7698000,59.1125000,-41.0140000,-13.1500000,3.8080000,101222.300000,0,0,0
4.651,0.0239000,0.0126000,9.6588000,57.4112000,57.6477000,59.1125000,-40.6810000,-13.1610000,3.9500000,101222.300000,0,0,0
4.661,0.0239000,0.0126000,9.6564000,57.4188000,57.4799000,59.1049000,-40.8480000,-13.1060000,4.3540000,101219.770000,0,0,0
4.671,0.0251000,0.0114000,9.6541000,57.4417000,57.2968000,59.0897000,-40.6310000,-13.1830000,4.6420000,101219.770000,0,0,0
4.681,0.0275000,0.0114000,9.6552000,57.4646000,57.1747000,59.0668000,-40.9460000,-13.1400000,4.2850000,101222.660000,0,0,0
4.691,0.0311000,0.0102000,9.6612000,57.4722000,57.1289000,59.0591000,-40.7960000,-13.2050000,4.8420000,101222.660000,0,0,0
4.701,0.0347000,0.0090000,9.6660000,57.4570000,57.2205000,59.0744000,-40.7100000,-13.3260000,4.8050000,101223.850000,0,0,0
4.711,0.0371000,0.0066000,9.6708000,57.4188000,57.4265000,59.0973000,-40.7650000,-13.1300000,4.7440000,101223.850000,0,0,0
4.721,0.0359000,0.0066000,9.6672000,57.3883000,57.6630000,59.1278000,-41.0570000,-13.2730000,4.8900000,101225.090000,0,0,0
4.731,0.0335000,0.0066000,9.6648000,57.3654000,57.8079000,59.1660000,-41.0370000,-13.2170000,4.4830000,101225.090000,0,0,0
4.741,0.0311000,0.0090000,9.6612000,57.3502000,57.8384000,59.2041000,-40.7470000,-13.0050000,4.2320000,101221.930000,0,0,0
4.751,0.0311000,0.0114000,9.6588000,57.3502000,57.7545000,59.2117000,-40.7190000,-13.4290000,3.7980000,101221.930000,0,0,0
4.761,0.0347000,0.0150000,9.6612000,57.3807000,57.5790000,59.1888000,-40.6430000,-13.3820000,4.4940000,101227.710000,0,0,0
4.771,0.0371000,0.0150000,9.6648000,57.3807000,57.5562000,59.1583000,-40.8340000,-13.1570000,3.9280000,101227.710000,0,0,0
4.781,0.0383000,0.0138000,9.6660000,57.3807000,57.5867000,59.1354000,-40.5440000,-13.2600000,3.9700000,101221.930000,0,0,0
4.791,0.0359000,0.0114000,9.6636000,57.3807000,57.6096000,59.1354000,-40.6220000,-13.1450000,4.5100000,101221.930000,0,0,0
4.801,0.0335000,0.0090000,9.6600000,57.3730000,57.5638000,59.1354000,-40.8480000,-13.1210000,4.3670000,101223.980000,0,0,0
4.811,0.0323000,0.0078000,9.6564000,57.3883000,57.4036000,59.1354000,-40.8960000,-13.0820000,4.3910000,101223.980000,0,0,0
4.821,0.0347000,0.0078000,9.6576000,57.4112000,57.2128000,59.1202000,-41.1070000,-13.0420000,4.4690000,101219.810000,0,0,0
4.831,0.0383000,0.0078000,9.6612000,57.4341000,57.0755000,59.1049000,-40.8260000,-13.2220000,4.4970000,101219.810000,0,0,0
4.841,0.0443000,0.0102000,9.6660000,57.4417000,57.0755000,59.0897000,-40.8470000,-13.0620000,4.2420000,101219.830000,0,0,0
4.851,0.0479000,0.0114000,9.6696000,57.4341000,57.2052000,59.0744000,-41.0510000,-13.1800000,4.7680000,101219.830000,0,0,0
4.861,0.0479000,0.0126000,9.6708000,57.4112000,57.3883000,59.0744000,-40.8750000,-13.2840000,4.7910000,101219.660000,0,0,0
4.871,0.0455000,0.0126000,9.6696000,57.3959000,57.5485000,59.0820000,-41.1020000,-12.9220000,5.1450000,101219.660000,0,0,0
4.881,0.0431000,0.0102000,9.6684000,57.3883000,57.6706000,59.0897000,-40.9820000,-13.3550000,4.8380000,101224.840000,0,0,0
4.891,0.0407000,0.0078000,9.6660000,57.3730000,57.7545000,59.1049000,-41.0560000,-13.2510000,4.2940000,101224.840000,0,0,0
4.901,0.0407000,0.0078000,9.6648000,57.3654000,57.8079000,59.1049000,-40.6910000,-13.0410000,4.9540000,101223.250000,0,0,0
4.911,0.0407000,0.0078000,9.6624000,57.3730000,57.8156000,59.0973000,-40.7210000,-13.2010000,4.6620000,101223.250000,0,0,0
4.921,0.0419000,0.0090000,9.6612000,57.3807000,57.7774000,59.0897000,-41.0490000,-13.2570000,4.7920000,101219.830000,0,0,0
4.931,0.0443000,0.0102000,9.6600000,57.3959000,57.7393000,59.0744000,-40.9260000,-13.2920000,4.7020000,101219.830000,0,0,0
4.941,0.0467000,0.0090000,9.6612000,57.4188000,57.7316000,59.0591000,-40.9910000,-13.4940000,4.7190000,101224.660000,0,0,0
4.951,0.0455000,0.0090000,9.6612000,57.4188000,57.7698000,59.0515000,-41.0740000,-13.2400000,4.3460000,101224.660000,0,0,0
4.961,0.0431000,0.0102000,9.6600000,57.4188000,57.7774000,59.0439000,-40.9720000,-13.0940000,4.9050000,101219.830000,0,0,0
4.971,0.0419000,0.0102000,9.6588000,57.4188000,57.7545000,59.0515000,-40.7870000,-12.9300000,4.4510000,101219.830000,0,0,0
4.981,0.0395000,0.0102000,9.6588000,57.4112000,57.7087000,59.0591000,-41.4050000,-13.2060000,4.5650000,101221.760000,0,0,0
4.991,0.0383000,0.0102000,9.6588000,57.4036000,57.6477000,59.0668000,-41.1940000,-13.2240000,4.2570000,101221.760000,0,0,0
5.001,0.0395000,0.0102000,9.6588000,57.4036000,57.5790000,59.0668000,-40.7670000,-13.0610000,4.3230000,101220.870000,0,0,0
5.011,0.0431000,0.0102000,9.6612000,57.4036000,57.5485000,59.0744000,-40.8220000,-13.1010000,4.2860000,101220.870000,0,0,0
5.021,0.0467000,0.0114000,9.6636000,57.4036000,57.6096000,59.0820000,-40.5310000,-13.1250000,4.0710000,101219.530000,0,0,0
5.031,0.0479000,0.0102000,9.6648000,57.3883000,57.7316000,59.0897000,-40.5980000,-12.9910000,4.4480000,101219.530000,0,0,0
5.041,0.0479000,0.0102000,9.6624000,57.3807000,57.8384000,59.0973000,-40.7760000,-13.2770000,4.7430000,101219.020000,0,0,0
5.051,0.0467000,0.0102000,9.6588000,57.3730000,57.8690000,59.0973000,-40.7590000,-13.3260000,4.3390000,101219.020000,0,0,0
5.061,0.0455000,0.0102000,9.6576000,57.3807000,57.8079000,59.0973000,-40.8610000,-13.1190000,4.3440000,101219.650000,0,0,0
5.071,0.0443000,0.0102000,9.6564000,57.3959000,57.6935000,59.1049000,-40.9270000,-13.0060000,4.0500000,101219.650000,0,0,0
5.081,0.0443000,0.0090000,9.6564000,57.4112000,57.5256000,59.0973000,-40.9800000,-13.5270000,4.1950000,101227.320000,0,0,0
5.091,0.0479000,0.0090000,9.6600000,57.4265000,57.4112000,59.0897000,-40.6900000,-13.2850000,4.0890000,101227.320000,0,0,0
5.101,0.0502000,0.0090000,9.6648000,57.4265000,57.4112000,59.0820000,-41.0620000,-13.1700000,4.1660000,101219.590000,0,0,0
5.111,0.0538000,0.0102000,9.6696000,57.4188000,57.5180000,59.0820000,-40.8440000,-13.1730000,3.9030000,101219.590000,0,0,0
5.121,0.0538000,0.0102000,9.6708000,57.3959000,57.7011000,59.0897000,-40.6470000,-12.8610000,3.9330000,101224.950000,0,0,0
5.131,0.0526000,0.0090000,9.6672000,57.3807000,57.8537000,59.0973000,-40.9810000,-13.1450000,4.5530000,101224.950000,0,0,0
5.141,0.0479000,0.0078000,9.6612000,57.3654000,57.8842000,59.0973000,-40.9720000,-12.9940000,4.2110000,101219.590000,0,0,0
5.151,0.0431000,0.0090000,9.6552000,57.3730000,57.7316000,59.0973000,-40.7270000,-13.1710000,4.3170000,101219.590000,0,0,0
5.161,0.0395000,0.0102000,9.6505000,57.3883000,57.4265000,59.0973000,-40.9420000,-13.2580000,4.4370000,101224.340000,0,0,0
5.171,0.0419000,0.0126000,9.6505000,57.4188000,57.0984000,59.0820000,-40.7570000,-12.8490000,4.1770000,101224.340000,0,0,0
5.181,0.0490000,0.0138000,9.6552000,57.4417000,57.2510000,58.6548000,-40.6350000,-13.1440000,4.5340000,101224.050000,0,0,0
5.191,0.0574000,0.0126000,9.6624000,57.4417000,56.9000000,59.0744000,-40.7070000,-13.0000000,4.4590000,101224.050000,0,0,0
5.201,0.0646000,0.0126000,9.6684000,57.4341000,57.1442000,59.0744000,-40.7010000,-12.7650000,4.6220000,101222.090000,0,0,0
5.211,0.0658000,0.0102000,9.6684000,57.4112000,57.4951000,59.0744000,-40.7560000,-13.2650000,4.8570000,101222.090000,0,0,0
5.221,0.0610000,0.0090000,9.6648000,57.3883000,57.7698000,59.0744000,-40.6220000,-13.0880000,4.0030000,101221.770000,0,0,0
5.231,0.0550000,0.0078000,9.6600000,57.3730000,57.8995000,59.0744000,-40.8680000,-12.7890000,4.2080000,101221.770000,0,0,0
5.241,0.0490000,0.0090000,9.6552000,57.3730000,57.8461000,59.0744000,-40.6640000,-12.9940000,4.2380000,101224.930000,0,0,0
5.251,0.0455000,0.0114000,9.6529000,60.5927000,57.2510000,58.6548000,-40.6110000,-12.9180000,4.4230000,101224.930000,0,0,0
5.261,0.0467000,0.0126000,9.6541000,57.4036000,57.4265000,59.0668000,-40.5730000,-12.9800000,4.1960000,101222.550000,0,0,0
5.271,0.0514000,0.0150000,9.6564000,57.4188000,57.2510000,59.0668000,-40.7880000,-13.2680000,4.2840000,101222.550000,0,0,0
5.281,0.0562000,0.0150000,9.6612000,57.4341000,57.1594000,59.0668000,-40.8180000,-13.1760000,4.1740000,101219.910000,0,0,0
5.291,0.0598000,0.0138000,9.6648000,57.4341000,57.1976000,59.0668000,-40.7810000,-13.1390000,4.5500000,101219.910000,0,0,0
5.301,0.0622000,0.0126000,9.6672000,57.4265000,57.3349000,59.0668000,-40.8650000,-12.9650000,3.9640000,101224.050000,0,0,0
5.311,0.0622000,0.0102000,9.6672000,57.4036000,57.6477000,59.0668000,-40.7360000,-12.8570000,4.8580000,101224.050000,0,0,0
5.321,0.0586000,0.0078000,9.6660000,57.3959000,57.7850000,59.0820000,-40.6750000,-12.8390000,4.1460000,101221.950000,0,0,0
5.331,0.0562000,0.0078000,9.6600000,57.3959000,57.8079000,59.0897000,-40.8010000,-13.1370000,3.8590000,101221.950000,0,0,0
5.341,0.0526000,0.0078000,9.6552000,57.4112000,57.6630000,59.0973000,-40.7700000,-13.1070000,4.1110000,101225.680000,0,0,0
5.351,0.0538000,0.0078000,9.6541000,57.4265000,57.4341000,59.1049000,-40.4780000,-12.8940000,4.9110000,101225.680000,0,0,0
5.361,0.0586000,0.0102000,9.6564000,57.4341000,57.2510000,59.1049000,-40.6580000,-13.1450000,4.2310000,101219.680000,0,0,0
5.371,0.0622000,0.0126000,9.6600000,57.4341000,57.1671000,59.0820000,-40.7450000,-12.8150000,5.0710000,101219.680000,0,0,0
5.381,0.0694000,0.0138000,9.6648000,57.4417000,57.2586000,59.0897000,-40.7620000,-13.2130000,4.7320000,101222.370000,0,0,0
5.391,0.0706000,0.0138000,9.6648000,57.4417000,57.4875000,59.0897000,-40.8890000,-13.1260000,4.7350000,101222.370000,0,0,0
5.401,0.0694000,0.0126000,9.6624000,57.4341000,57.6935000,59.0820000,-40.7600000,-13.1400000,4.2290000,101219.910000,0,0,0
5.411,0.0682000,0.0114000,9.6600000,57.4188000,57.8384000,59.0897000,-40.8440000,-12.8290000,5.0340000,101219.910000,0,0,0
5.421,0.0634000,0.0102000,9.6564000,57.4112000,57.8613000,59.0973000,-40.7820000,-12.9900000,4.2290000,101219.410000,0,0,0
5.431,0.0598000,0.0102000,9.6541000,57.4112000,57.7393000,59.1049000,-40.6640000,-13.2520000,4.6630000,101219.410000,0,0,0
5.441,0.0586000,0.0102000,9.6541000,57.4265000,57.5104000,59.1049000,-40.5200000,-12.9840000,4.5210000,101221.760000,0,0,0
5.451,0.0598000,0.0114000,9.6564000,57.4417000,57.2815000,59.0973000,-40.7080000,-13.1170000,4.0230000,101221.760000,0,0,0
5.461,0.0646000,0.0102000,9.6600000,57.4570000,57.1518000,59.0820000,-41.0910000,-12.8330000,4.2450000,101223.520000,0,0,0
5.471,0.0694000,0.0090000,9.6648000,57.4570000,57.1823000,59.0744000,-40.7750000,-12.9460000,3.9140000,101223.520000,0,0,0
5.481,0.0754000,0.0078000,9.6672000,57.4493000,57.3883000,59.0744000,-40.6200000,-13.4510000,3.8680000,101222.550000,0,0,0
5.491,0.0778000,0.0078000,9.6684000,57.4265000,57.7087000,59.0820000,-40.6420000,-13.2370000,3.9840000,101222.550000,0,0,0
5.501,0.0766000,0.0090000,9.6648000,57.4036000,58.0444000,59.0820000,-40.9320000,-13.2180000,4.0290000,101223.960000,0,0,0
5.511,0.0718000,0.0102000,9.6612000,57.3807000,58.2733000,59.0897000,-40.9130000,-13.2220000,3.9100000,101223.960000,0,0,0
5.521,0.0658000,0.0102000,9.6576000,57.3730000,58.3191000,59.0897000,-40.9030000,-13.2470000,4.1140000,101222.140000,0,0,0
5.531,0.0598000,0.0114000,9.6517000,57.3807000,58.1512000,59.0973000,-40.7940000,-12.9290000,4.2980000,101222.140000,0,0,0
5.541,0.0574000,0.0114000,9.6517000,57.4036000,57.8232000,59.0897000,-40.9020000,-12.8940000,4.7370000,101227.390000,0,0,0
5.551,0.0610000,0.0114000,9.6564000,57.4265000,57.5333000,59.0820000,-40.8920000,-13.1010000,4.9570000,101227.390000,0,0,0
5.561,0.0670000,0.0114000,9.6612000,57.4341000,57.4341000,59.0744000,-40.9630000,-13.3510000,4.4710000,101224.930000,0,0,0
5.571,0.0730000,0.0114000,9.6672000,57.4265000,57.5333000,59.0744000,-40.8570000,-13.2230000,4.4540000,101224.930000,0,0,0
5.581,0.0742000,0.0126000,9.6696000,57.4188000,57.8003000,59.0744000,-40.8400000,-13.0910000,4.2890000,101221.790000,0,0,0
5.591,0.0706000,0.0114000,9.6660000,57.4036000,58.0521000,59.0820000,-40.7680000,-12.9180000,4.5040000,101221.790000,0,0,0
5.601,0.0658000,0.0102000,9.6600000,57.4036000,58.1436000,59.0820000,-40.6160000,-13.3550000,4.0290000,101223.520000,0,0,0
5.611,0.0610000,0.0102000,9.6552000,57.4112000,58.0521000,59.0744000,-40.8030000,-13.1400000,3.9690000,101223.520000,0,0,0
5.621,0.0586000,0.0102000,9.6517000,57.4341000,57.2510000,58.6548000,-40.5350000,-13.1370000,4.6010000,101226.000000,0,0,0
5.631,0.0610000,0.0102000,9.6541000,57.4493000,57.6172000,59.0591000,-40.6100000,-13.4840000,4.2090000,101226.000000,0,0,0
5.641,0.0658000,0.0114000,9.6564000,57.4646000,57.5104000,59.0591000,-40.6830000,-13.0050000,4.8420000,101219.590000,0,0,0
5.651,0.0706000,0.0126000,9.6600000,57.4570000,57.5333000,59.0668000,-40.6030000,-13.1330000,4.9280000,101219.590000,0,0,0
5.661,0.0742000,0.0138000,9.6624000,57.4417000,57.6859000,59.0744000,-40.8460000,-13.0680000,4.5430000,101223.160000,0,0,0
5.671,0.0730000,0.0126000,9.6624000,57.4188000,57.8995000,59.0744000,-40.7730000,-12.9440000,5.0100000,101223.160000,0,0,0
5.681,0.0706000,0.0114000,9.6600000,57.4112000,58.0521000,59.0820000,-40.8140000,-13.1500000,4.7920000,101219.590000,0,0,0
5.691,0.0670000,0.0102000,9.6576000,57.3959000,58.1055000,59.0897000,-40.5390000,-12.9240000,4.6170000,101219.590000,0,0,0
5.701,0.0622000,0.0078000,9.6552000,57.3959000,58.0521000,59.0897000,-40.9170000,-12.9810000,4.1910000,101223.520000,0,0,0
5.711,0.0622000,0.0078000,9.6541000,57.4112000,57.8842000,59.0973000,-40.7390000,-13.0040000,4.7300000,101223.520000,0,0,0
5.721,0.0634000,0.0078000,9.6564000,57.4265000,57.7240000,59.0897000,-40.9110000,-13.2260000,3.9020000,101224.930000,0,0,0
5.731,0.0670000,0.0090000,9.6588000,57.4341000,57.6553000,59.0897000,-40.5600000,-13.3410000,4.2030000,101224.930000,0,0,0
5.741,0.0682000,0.0102000,9.6600000,57.4265000,57.6553000,59.0897000,-40.7040000,-13.4580000,4.1570000,101222.640000,0,0,0
5.751,0.0682000,0.0090000,9.6588000,57.4188000,57.6630000,59.0897000,-40.8230000,-12.9950000,3.9840000,101222.640000,0,0,0
5.761,0.0682000,0.0102000,9.6576000,57.4188000,57.6477000,59.0897000,-41.0000000,-13.0860000,4.1960000,101223.240000,0,0,0
5.771,0.0670000,0.0102000,9.6564000,57.4112000,57.5943000,59.0897000,-40.9370000,-13.1300000,3.9480000,101223.240000,0,0,0
5.781,0.0658000,0.0114000,9.6541000,57.4265000,57.4951000,59.0897000,-40.6940000,-13.2100000,3.8700000,101225.800000,0,0,0
5.791,0.0670000,0.0114000,9.6529000,57.4417000,57.3654000,59.0820000,-40.8470000,-13.1630000,4.1820000,101225.800000,0,0,0
5.801,0.0694000,0.0126000,9.6541000,57.4493000,57.2510000,59.0744000,-40.9840000,-13.1640000,4.1170000,101223.340000,0,0,0
5.811,0.0742000,0.0138000,9.6588000,57.4570000,57.2357000,59.0668000,-40.9600000,-13.0100000,4.7080000,101223.340000,0,0,0
5.821,0.0802000,0.0138000,9.6648000,57.4493000,57.3959000,59.0744000,-40.6280000,-13.0510000,3.6080000,101219.740000,0,0,0
5.831,0.0825000,0.0138000,9.6660000,57.4265000,57.6782000,59.0820000,-40.6640000,-13.0280000,4.6110000,101219.740000,0,0,0
5.841,0.0790000,0.0138000,9.6636000,57.3959000,57.9376000,59.0973000,-40.6220000,-12.9430000,4.5940000,101219.810000,0,0,0
5.851,0.0742000,0.0138000,9.6600000,57.3883000,58.0521000,59.1049000,-40.8430000,-12.8350000,4.5960000,101219.810000,0,0,0
5.861,0.0694000,0.0150000,9.6564000,57.3883000,58.0215000,59.1049000,-41.0780000,-13.1070000,4.0520000,101223.930000,0,0,0
5.871,0.0670000,0.0150000,9.6552000,57.4112000,57.8690000,59.0973000,-40.9770000,-12.7910000,4.3010000,101223.930000,0,0,0
5.881,0.0694000,0.0150000,9.6552000,57.4341000,57.7240000,59.0897000,-40.5540000,-13.3430000,4.3850000,101223.420000,0,0,0
5.891,0.0742000,0.0161000,9.6588000,57.4570000,57.7087000,59.0744000,-40.7280000,-13.1720000,4.0280000,101223.420000,0,0,0
5.901,0.0742000,0.0138000,9.6600000,57.4493000,57.8079000,59.0744000,-40.7880000,-13.1400000,3.9730000,101226.090000,0,0,0
5.911,0.0718000,0.0126000,9.6576000,57.4341000,57.8842000,59.0744000,-40.8180000,-12.9960000,3.8410000,101226.090000,0,0,0
5.921,0.0670000,0.0114000,9.6529000,57.4188000,57.8461000,59.0744000,-40.9090000,-13.3040000,4.0350000,101219.650000,0,0,0
5.931,0.0634000,0.0102000,9.6493000,57.4265000,57.6706000,59.0820000,-41.1020000,-12.9940000,4.2590000,101219.650000,0,0,0
5.941,0.0634000,0.0078000,9.6505000,57.4341000,57.4265000,59.0820000,-41.0990000,-13.3650000,4.2690000,101219.530000,0,0,0
5.951,0.0688000,0.1926000,-0.0006000,56.6864000,57.2510000,58.6548000,-40.8660000,-13.0800000,3.8990000,101219.530000,0,0,0
5.961,0.0754000,0.0102000,9.6576000,57.4646000,57.1671000,59.0744000,-40.8470000,-12.9390000,3.9580000,101219.910000,0,0,0
5.971,0.0813000,0.0126000,9.6588000,57.4646000,57.2739000,59.0744000,-40.8100000,-13.1540000,4.0790000,101219.910000,0,0,0
5.981,0.0849000,0.0138000,9.6624000,57.4417000,57.4951000,59.0744000,-41.0560000,-13.0990000,4.4640000,101223.150000,0,0,0
5.991,0.0873000,0.0150000,9.6648000,57.4112000,57.8079000,59.0820000,-40.6920000,-12.9770000,3.5420000,101223.150000,0,0,0
6.001,0.0849000,0.0138000,9.6648000,57.3807000,58.1284000,59.0820000,-40.7940000,-13.1020000,4.3650000,101219.550000,0,0,0
6.011,0.0790000,0.0138000,9.6600000,57.3654000,58.3115000,59.0897000,-40.6370000,-13.0870000,4.5790000,101219.550000,0,0,0
6.021,0.0742000,0.0138000,9.6552000,57.3654000,58.3191000,59.0973000,-40.6690000,-13.0550000,4.3350000,101223.770000,0,0,0
6.031,0.0718000,0.0126000,9.6541000,57.3807000,58.1818000,59.0973000,-40.7640000,-12.8710000,3.9180000,101223.770000,0,0,0
6.041,0.0694000,0.0126000,9.6552000,57.3959000,57.9910000,59.0897000,-40.7860000,-13.3520000,4.5690000,101219.170000,0,0,0
6.051,0.0682000,0.0126000,19.5994000,56.6864000,57.2510000,58.6548000,-40.5780000,-13.4670000,3.8390000,101219.170000,0,0,0
6.061,0.0718000,0.0126000,9.6576000,57.4493000,57.6019000,59.0744000,-40.6790000,-13.0580000,3.9150000,101223.370000,0,0,0
6.071,0.0754000,0.0138000,9.6612000,57.4646000,57.5714000,59.0668000,-40.7960000,-13.3040000,3.8410000,101223.370000,0,0,0
6.081,0.0790000,0.0138000,9.6636000,57.4570000,57.6630000,59.0591000,-41.0370000,-13.2530000,3.9290000,101220.240000,0,0,0
6.091,0.0790000,0.0114000,9.6636000,57.4417000,57.8079000,59.0668000,-40.9680000,-13.0970000,4.6900000,101220.240000,0,0,0
6.101,0.0766000,0.0102000,9.6612000,57.4188000,57.9300000,59.0744000,-41.0970000,-12.9250000,4.4180000,101222.900000,0,0,0
6.111,0.0730000,0.0102000,9.6588000,57.4036000,57.9605000,59.0744000,-40.8720000,-13.2160000,3.9790000,101222.900000,0,0,0
6.121,0.0694000,0.0090000,9.6552000,57.4036000,57.8842000,59.0820000,-40.9360000,-13.0440000,3.9990000,101223.340000,0,0,0
6.131,0.0682000,0.0102000,9.6552000,57.4188000,57.7316000,59.0820000,-40.8740000,-12.9230000,3.9110000,101223.340000,0,0,0
6.141,0.0706000,0.0114000,9.6564000,57.4341000,57.5943000,59.0820000,-40.9840000,-13.4070000,3.7380000,101221.730000,0,0,0
6.151,0.0718000,0.0138000,9.6564000,57.4493000,57.4875000,59.0820000,-41.0030000,-13.2050000,3.4460000,101221.730000,0,0,0
6.161,0.0730000,0.0161000,9.6552000,57.4570000,57.3730000,59.0820000,-41.1180000,-13.0110000,4.0060000,101219.760000,0,0,0
6.171,0.0718000,0.0161000,9.6541000,57.4646000,57.2357000,59.0820000,-40.9190000,-13.1050000,4.1280000,101219.760000,0,0,0
6.181,0.0742000,0.0161000,9.6552000,57.4646000,57.0984000,59.0820000,-40.8670000,-12.8670000,3.7310000,101224.080000,0,0,0
6.191,0.0802000,0.0126000,9.6600000,57.4570000,57.0831000,59.0897000,-41.0350000,-13.2430000,4.3280000,101224.080000,0,0,0
6.201,0.0885000,0.0102000,9.6660000,57.4341000,57.2891000,59.1049000,-40.8240000,-13.0890000,3.7120000,101226.230000,0,0,0
6.211,0.0945000,0.0078000,9.6708000,57.4036000,57.7164000,59.1125000,-40.8760000,-12.8030000,3.8990000,101226.230000,0,0,0
6.221,0.0909000,0.0078000,9.6708000,57.3730000,58.2123000,59.1278000,-40.8540000,-12.9400000,3.8520000,101223.230000,0,0,0
6.231,0.0813000,0.0078000,9.6636000,57.3654000,58.5175000,59.1354000,-41.0420000,-13.0490000,4.2020000,101223.230000,0,0,0
6.241,0.0730000,0.0102000,9.6564000,57.3730000,58.5403000,59.1278000,-41.0390000,-13.3840000,4.9840000,101219.300000,0,0,0
6.251,0.0694000,0.0126000,9.6517000,57.3883000,58.3496000,59.1125000,-41.2100000,-13.0450000,3.9870000,101219.300000,0,0,0
6.261,0.0706000,0.0150000,9.6517000,57.4112000,58.0826000,59.0897000,-40.9800000,-13.0660000,4.0730000,101219.760000,0,0,0
6.271,0.0718000,0.0144000,-0.0006000,56.6864000,57.2510000,58.6548000,-40.9300000,-13.0580000,4.0920000,101219.760000,0,0,0
6.281,0.0706000,0.0126000,9.6552000,57.4417000,57.7011000,59.0591000,-41.0140000,-13.2220000,4.0680000,101219.170000,0,0,0
6.291,0.0718000,0.0114000,9.6541000,57.4417000,57.5256000,59.0515000,-41.0580000,-13.0380000,4.1470000,101219.170000,0,0,0
6.301,0.0742000,0.0102000,9.6552000,57.4493000,57.4188000,59.0515000,-41.0970000,-13.1110000,4.6920000,101223.930000,0,0,0
6.311,0.0766000,0.0078000,9.6564000,57.4493000,57.3883000,59.0515000,-41.1950000,-13.1160000,4.4220000,101223.930000,0,0,0
6.321,0.0813000,0.0090000,9.6576000,57.4493000,57.4341000,59.0591000,-41.0590000,-13.1520000,3.9220000,101222.350000,0,0,0
6.331,0.0813000,0.0114000,9.6564000,57.4341000,57.5485000,59.0668000,-41.1960000,-13.1110000,4.2680000,101222.350000,0,0,0
6.341,0.0802000,0.0126000,9.6541000,57.4265000,57.6324000,59.0744000,-40.8440000,-12.9370000,4.7070000,101219.810000,0,0,0
6.351,0.0790000,0.0150000,9.6529000,57.4265000,57.6859000,59.0744000,-40.7670000,-13.0030000,4.3030000,101219.810000,0,0,0
6.361,0.0778000,0.0161000,9.6541000,57.1899000,57.2510000,58.6548000,-40.8350000,-13.1060000,4.6140000,101223.220000,0,0,0
6.371,0.0790000,0.0161000,9.6552000,57.4265000,57.7393000,59.0668000,-40.7610000,-13.2560000,4.9500000,101223.220000,0,0,0
6.381,0.0790000,0.0150000,9.6552000,57.4188000,57.7698000,59.0668000,-40.8760000,-13.1270000,4.5690000,101223.420000,0,0,0
6.391,0.0778000,0.0126000,9.6541000,57.4188000,57.7621000,59.0668000,-40.8750000,-13.0190000,3.9710000,101223.420000,0,0,0
6.401,0.0778000,0.0090000,9.6552000,57.4265000,57.6935000,59.0668000,-40.8700000,-13.2930000,3.7540000,101219.050000,0,0,0
6.411,0.0802000,0.0090000,9.7994000,56.6864000,57.2510000,58.6548000,-40.7750000,-13.1110000,3.9460000,101219.050000,0,0,0
6.421,0.0825000,0.0090000,9.6588000,57.4341000,57.6401000,59.0744000,-40.6980000,-12.9050000,3.7260000,101222.700000,0,0,0
6.431,0.0837000,0.0114000,9.6600000,57.4341000,57.6935000,59.0744000,-40.8540000,-13.2490000,3.9700000,101222.700000,0,0,0
6.441,0.0825000,0.0126000,9.6588000,57.4341000,57.7698000,59.0744000,-40.8790000,-13.1450000,3.8190000,101219.680000,0,0,0
6.451,0.0813000,0.0126000,9.6576000,57.4265000,57.8461000,59.0820000,-40.7260000,-13.1490000,4.4890000,101219.680000,0,0,0
6.461,0.0802000,0.0138000,9.6588000,57.4112000,58.0215000,59.0897000,-41.1000000,-12.8060000,3.6800000,101226.340000,0,0,0
6.471,0.0778000,0.0138000,9.6564000,57.3959000,58.1131000,59.0820000,-40.8330000,-13.1760000,4.4170000,101226.340000,0,0,0
6.481,0.0754000,0.0138000,9.6529000,57.3959000,58.0597000,59.0744000,-40.7990000,-13.1350000,4.3020000,101220.240000,0,0,0
6.491,0.0754000,0.0138000,9.6517000,57.4036000,57.8918000,59.0668000,-40.6150000,-13.1160000,3.8040000,101220.240000,0,0,0
6.501,0.0790000,0.0150000,9.6541000,57.4112000,57.7545000,59.0668000,-40.9310000,-12.7790000,3.5650000,101220.240000,0,0,0
6.511,0.0825000,0.0150000,9.6576000,57.4036000,57.6935000,59.0668000,-40.6900000,-13.2060000,3.8920000,101220.240000,0,0,0
6.521,0.0873000,0.0150000,9.6612000,57.3959000,57.7469000,59.0744000,-40.9160000,-13.2310000,3.1540000,101219.320000,0,0,0
6.531,0.0897000,0.0138000,9.6624000,57.3807000,57.9224000,59.0897000,-40.7690000,-13.0980000,3.5820000,101219.320000,0,0,0
6.541,0.0873000,0.0114000,9.6612000,57.3578000,58.1665000,59.1049000,-40.7190000,-12.9900000,4.0240000,101220.910000,0,0,0
6.551,0.0825000,0.0102000,9.6576000,57.3349000,58.3344000,59.1202000,-40.8670000,-13.1820000,3.3320000,101220.910000,0,0,0
6.561,0.0778000,0.0114000,9.6541000,57.3273000,58.3649000,59.1354000,-40.5590000,-13.2960000,3.3040000,101224.640000,0,0,0
6.571,0.0730000,0.0138000,9.6505000,57.3349000,58.2581000,59.1354000,-40.9400000,-12.9760000,3.5780000,101224.640000,0,0,0
6.581,0.0694000,0.0173000,9.6481000,57.3654000,58.0063000,59.1278000,-40.5060000,-12.9770000,3.2720000,101221.620000,0,0,0
6.591,0.0682000,0.0185000,9.6493000,57.4036000,57.6782000,59.1125000,-40.6310000,-13.3620000,3.2230000,101221.620000,0,0,0
6.601,0.0718000,0.0197000,9.6552000,57.4265000,57.4188000,59.1049000,-40.6630000,-12.9640000,3.8130000,101220.240000,0,0,0
6.611,0.0766000,0.0173000,9.6600000,57.4417000,57.3196000,59.0897000,-40.8270000,-12.8620000,3.7140000,101220.240000,0,0,0
6.621,0.0813000,0.0150000,9.6636000,57.4341000,57.3502000,59.0897000,-40.7150000,-12.9580000,3.9130000,101219.530000,0,0,0
6.631,0.0873000,0.0126000,9.6648000,57.4188000,57.5562000,59.0820000,-40.8060000,-12.7700000,3.6070000,101219.530000,0,0,0
6.641,0.0873000,0.0102000,9.6636000,57.4036000,57.8079000,59.0897000,-40.7890000,-13.0680000,4.0280000,101225.360000,0,0,0
6.651,0.0861000,0.0090000,9.6600000,57.3959000,58.0215000,59.0897000,-40.7740000,-13.1820000,4.0870000,101225.360000,0,0,0
6.661,0.0825000,0.0090000,9.6552000,57.3959000,58.1436000,59.0820000,-41.0260000,-13.0550000,3.6540000,101223.540000,0,0,0
6.671,0.0790000,0.0102000,9.6529000,57.3959000,58.1360000,59.0744000,-40.8610000,-13.1040000,4.1800000,101223.540000,0,0,0
6.681,0.0778000,0.0114000,9.6541000,57.4112000,58.0521000,59.0668000,-41.1200000,-13.1780000,3.8130000,101223.420000,0,0,0
6.691,0.0766000,0.0126000,9.6541000,57.4188000,57.9758000,59.0591000,-41.0780000,-13.0410000,3.6150000,101223.420000,0,0,0
6.701,0.0754000,0.0138000,9.6552000,57.4265000,57.9300000,59.0515000,-41.0010000,-12.9140000,3.9240000,101219.680000,0,0,0
6.711,0.0742000,0.0150000,9.6541000,57.4265000,57.9071000,59.0591000,-41.0450000,-13.1090000,4.2600000,101219.680000,0,0,0
6.721,0.0742000,0.0161000,9.6541000,57.4341000,57.8690000,59.0591000,-41.0630000,-12.9980000,4.2560000,101220.240000,0,0,0
6.731,0.0754000,0.0161000,9.6541000,57.4417000,57.8156000,59.0668000,-40.9410000,-13.1040000,4.0160000,101220.240000,0,0,0
6.741,0.0754000,0.0138000,9.6541000,57.4341000,57.7698000,59.0668000,-40.6760000,-12.8310000,4.3220000,101220.080000,0,0,0
6.751,0.0742000,0.0126000,9.6529000,57.4417000,57.6859000,59.0744000,-40.8670000,-13.2830000,4.3160000,101220.080000,0,0,0
6.761,0.0742000,0.0126000,9.6552000,57.4493000,57.5638000,59.0668000,-40.7670000,-13.1180000,3.9630000,101219.760000,0,0,0
6.771,0.0778000,0.0138000,9.6588000,57.4493000,57.5027000,59.0668000,-41.0340000,-12.9840000,3.6510000,101219.760000,0,0,0
6.781,0.0802000,0.0126000,9.6612000,57.4417000,57.5180000,59.0668000,-40.9690000,-13.3340000,4.2200000,101219.650000,0,0,0
6.791,0.0849000,0.0126000,9.6660000,57.4341000,57.6553000,59.0668000,-41.1900000,-13.4850000,4.6380000,101219.650000,0,0,0
6.801,0.0885000,0.0138000,9.6684000,57.4036000,57.9453000,59.0668000,-40.7870000,-13.2100000,3.5480000,101219.760000,0,0,0
6.811,0.0861000,0.0126000,9.6684000,57.3578000,58.2886000,62.5610000,-41.1430000,-13.2150000,3.6910000,101219.760000,0,0,0
6.821,0.0802000,0.0114000,9.6648000,57.3349000,58.5403000,59.0820000,-40.6870000,-13.1730000,3.6400000,101219.880000,0,0,0
6.831,0.0730000,0.0114000,9.6600000,57.3273000,58.5938000,59.0973000,-40.9060000,-13.3010000,3.3930000,101219.880000,0,0,0
6.841,0.0658000,0.0114000,9.6541000,57.3349000,58.4183000,59.1049000,-40.8960000,-13.2910000,3.8810000,101223.770000,0,0,0
6.851,0.0646000,0.0138000,9.6529000,57.3578000,58.1207000,59.1049000,-41.2220000,-12.8700000,4.1130000,101223.770000,0,0,0
6.861,0.0682000,0.0150000,9.6541000,57.3883000,57.8461000,59.0973000,-40.9230000,-13.2030000,4.0090000,101219.760000,0,0,0
6.871,0.0718000,0.0161000,9.6552000,57.4036000,57.6706000,59.0897000,-40.8520000,-13.1030000,4.0430000,101219.760000,0,0,0
6.881,0.0742000,0.0161000,9.6576000,57.4112000,57.6019000,59.0820000,-40.7700000,-13.1360000,4.0060000,101223.240000,0,0,0
6.891,0.0766000,0.0161000,9.6600000,57.4112000,57.6782000,59.0744000,-40.7610000,-13.3780000,4.1420000,101223.240000,0,0,0
6.901,0.0766000,0.0138000,9.6624000,57.4036000,57.8384000,59.0744000,-40.6770000,-13.2940000,4.6260000,101221.870000,0,0,0
6.911,0.0742000,0.0114000,9.6624000,57.3959000,57.9987000,59.0820000,-40.8700000,-13.1200000,4.4550000,101221.870000,0,0,0
6.921,0.0694000,0.0090000,9.6588000,57.3883000,58.0673000,59.0897000,-40.8030000,-13.3480000,3.8470000,101220.080000,0,0,0
6.931,0.0658000,0.0078000,9.6552000,57.3883000,58.0063000,59.0897000,-41.1190000,-13.2420000,4.5680000,101220.080000,0,0,0
6.941,0.0646000,-0.1136000,-0.0006000,56.6864000,57.2510000,58.6548000,-40.8560000,-13.0140000,3.5410000,101221.500000,0,0,0
6.951,0.0670000,0.0114000,9.6576000,57.4188000,57.6553000,59.0820000,-40.8880000,-13.2760000,3.6900000,101221.500000,0,0,0
6.961,0.0718000,0.0138000,9.6612000,57.4188000,57.5943000,59.0744000,-41.2250000,-12.8800000,4.0450000,101221.500000,0,0,0
6.971,0.0754000,0.0161000,9.6624000,57.4112000,57.6401000,59.0820000,-40.8730000,-12.8210000,4.3520000,101221.500000,0,0,0
6.981,0.0766000,0.0161000,9.6624000,57.4036000,57.7393000,59.0820000,-40.7630000,-12.8320000,4.1630000,101224.640000,0,0,0
6.991,0.0766000,0.0138000,9.6600000,57.3883000,57.8690000,59.0897000,-41.1480000,-13.0190000,3.8400000,101224.640000,0,0,0
7.001,0.0766000,0.0114000,9.6588000,57.3883000,57.9224000,59.0973000,-40.9720000,-13.1590000,4.3230000,101223.930000,0,0,0
7.011,0.0754000,0.0114000,9.6576000,57.3807000,57.9529000,59.1049000,-40.7830000,-13.1560000,4.3040000,101223.930000,0,0,0
7.021,0.0742000,0.0126000,9.6564000,57.3883000,57.9453000,59.1049000,-40.9800000,-13.1160000,4.5290000,101220.080000,0,0,0
7.031,0.0742000,0.0138000,9.6541000,57.4036000,57.8613000,59.0897000,-40.6080000,-13.0800000,4.3720000,101220.080000,0,0,0
7.041,0.0754000,0.0150000,9.6541000,57.4112000,57.7545000,59.0820000,-40.7690000,-13.0330000,4.8250000,101220.240000,0,0,0
7.051,0.0766000,0.0150000,9.6564000,57.4188000,57.6935000,59.0744000,-40.7600000,-12.5790000,4.6860000,101220.240000,0,0,0
7.061,0.0766000,0.0161000,9.6576000,57.4188000,57.7011000,59.0668000,-40.8980000,-12.7390000,4.5550000,101220.080000,0,0,0
7.071,0.0754000,0.0161000,9.6576000,57.4265000,57.2510000,58.6548000,-40.7440000,-12.9580000,4.5890000,101220.080000,0,0,0
7.081,0.0718000,0.0150000,9.6564000,57.4265000,57.7621000,59.0744000,-40.7690000,-13.2980000,4.7310000,101220.310000,0,0,0
7.091,0.0694000,0.0138000,9.6552000,57.4265000,57.7240000,59.0820000,-40.7580000,-13.1950000,4.6150000,101220.310000,0,0,0
7.101,0.0682000,0.0126000,9.6541000,57.4341000,57.6248000,59.0744000,-41.1200000,-12.7250000,4.6710000,101223.930000,0,0,0
7.111,0.0694000,0.0114000,9.6552000,57.4417000,57.5180000,59.0668000,-41.0940000,-13.0860000,4.5110000,101223.930000,0,0,0
7.121,0.0730000,0.0114000,9.6564000,57.4417000,57.4417000,59.0668000,-40.8520000,-13.0510000,4.3840000,101223.580000,0,0,0
7.131,0.0754000,0.0126000,9.6588000,57.4417000,57.4341000,59.0668000,-40.8490000,-12.9560000,4.7260000,101223.580000,0,0,0
7.141,0.0766000,0.0138000,9.6588000,57.4493000,57.4493000,59.0668000,-40.8750000,-13.0250000,4.2330000,101222.350000,0,0,0
7.151,0.0790000,0.0161000,9.6588000,57.4417000,57.4951000,59.0744000,-40.5980000,-13.2780000,4.1620000,101222.350000,0,0,0
7.161,0.0825000,0.0161000,9.6612000,57.4265000,57.5867000,59.0744000,-40.6930000,-13.2450000,4.3850000,101222.700000,0,0,0
7.171,0.0849000,0.0161000,9.6648000,57.4188000,57.7393000,59.0744000,-40.9020000,-13.0590000,4.5390000,101222.700000,0,0,0
7.181,4.3282000,2.9877000,0.0000000,57.1823000,-232.3685000,43.5257000,-40.7990000,-13.1130000,4.3140000,101219.730000,0,0,0
7.191,0.0790000,0.0126000,9.6576000,57.4112000,58.0368000,59.0668000,-40.6510000,-13.1950000,4.1230000,101219.730000,0,0,0
7.201,0.0754000,0.0126000,9.6541000,57.4112000,58.0139000,59.0744000,-40.3420000,-12.9630000,4.4900000,101219.930000,0,0,0
7.211,0.0730000,0.0126000,9.6529000,57.4188000,57.9071000,59.0744000,-40.8130000,-13.2500000,4.5460000,101219.930000,0,0,0
7.221,0.0742000,0.0138000,9.6552000,57.4188000,57.7774000,59.0668000,-41.1560000,-13.0190000,3.3830000,101223.580000,0,0,0
7.231,0.0766000,0.0138000,9.6564000,57.4112000,57.7011000,59.0668000,-40.9900000,-13.2550000,4.0700000,101223.580000,0,0,0
7.241,0.0790000,0.0138000,9.6576000,57.4112000,57.7011000,59.0668000,-41.1180000,-13.0900000,3.8550000,101219.880000,0,0,0
7.251,0.0802000,0.0126000,9.6588000,57.4036000,57.7545000,59.0744000,-40.8380000,-13.1520000,4.3240000,101219.880000,0,0,0
7.261,0.0802000,0.0102000,9.6588000,57.4036000,57.8461000,59.0744000,-40.8450000,-12.9660000,4.5880000,101222.700000,0,0,0
7.271,0.0766000,0.0102000,9.6576000,57.4112000,57.9071000,59.0744000,-40.8810000,-12.9580000,4.2530000,101222.700000,0,0,0
7.281,0.0742000,0.0126000,9.6564000,57.4265000,57.9147000,59.0744000,-40.6990000,-12.7840000,3.3460000,101223.580000,0,0,0
7.291,0.0742000,0.0138000,9.6564000,57.4265000,57.8918000,59.0744000,-40.7540000,-13.0890000,3.8760000,101223.580000,0,0,0
7.301,0.0754000,0.0150000,9.6588000,57.4265000,57.8995000,59.0744000,-40.8890000,-12.8020000,3.8890000,101220.240000,0,0,0
7.311,0.0790000,0.0150000,9.6600000,57.4188000,57.9681000,59.0744000,-40.8470000,-12.9170000,3.8310000,101220.240000,0,0,0
7.321,0.0813000,0.0150000,9.6612000,57.4112000,58.0902000,59.0591000,-41.1360000,-13.2800000,4.3180000,101220.460000,0,0,0
7.331,0.0802000,0.0150000,9.6600000,57.4036000,58.1970000,59.0515000,-41.0030000,-13.0310000,4.3020000,101220.460000,0,0,0
7.341,0.0778000,0.0138000,9.6588000,57.4036000,58.2504000,59.0439000,-40.9870000,-13.2380000,3.4540000,101223.930000,0,0,0
7.351,0.0742000,0.0138000,9.6564000,57.4112000,58.1894000,59.0439000,-40.9730000,-12.8930000,3.3020000,101223.930000,0,0,0
7.361,0.0694000,0.0150000,9.6541000,57.4112000,58.0444000,59.0515000,-40.9530000,-12.9020000,3.0340000,101221.480000,0,0,0
7.371,0.0682000,0.0161000,9.6529000,57.4188000,57.8232000,59.0515000,-40.8630000,-12.8690000,4.0720000,101221.480000,0,0,0
7.381,0.0694000,0.0173000,9.6552000,57.4265000,57.5943000,59.0591000,-41.1350000,-12.8830000,3.8990000,101220.320000,0,0,0
7.391,0.0730000,0.0161000,9.6564000,57.4341000,57.4188000,59.0591000,-40.8910000,-13.0410000,4.5490000,101220.320000,0,0,0
7.401,1.8842000,2.9877000,0.0000000,56.9382000,193.4128000,43.5257000,-41.1680000,-13.1110000,3.6490000,101220.310000,0,0,0
7.411,0.0813000,0.0161000,9.6648000,57.4112000,57.4875000,59.0820000,-40.8640000,-12.9710000,3.9790000,101220.310000,0,0,0
7.421,0.0813000,0.0150000,9.6648000,57.4036000,57.6706000,59.0897000,-41.0190000,-13.1830000,4.2730000,101220.250000,0,0,0
7.431,0.0778000,0.0150000,9.6624000,57.3959000,57.8232000,59.0897000,-40.8160000,-12.8210000,4.1160000,101220.250000,0,0,0
7.441,0.0742000,0.0138000,9.6588000,57.3883000,57.8537000,59.0897000,-41.0430000,-12.8990000,4.2020000,101220.410000,0,0,0
7.451,0.0730000,0.0126000,9.6552000,57.4036000,57.7545000,59.0820000,-40.8880000,-13.2320000,3.9770000,101220.410000,0,0,0
7.461,0.0742000,0.0126000,9.6552000,57.4265000,57.6172000,59.0744000,-41.2300000,-12.9150000,4.4280000,101223.950000,0,0,0
7.471,0.0790000,0.0150000,9.6576000,57.4341000,57.5485000,59.0668000,-40.8740000,-13.1100000,3.6940000,101223.950000,0,0,0
7.481,0.0837000,0.0161000,9.6612000,57.4265000,57.6019000,59.0591000,-40.7960000,-13.0670000,3.7820000,101223.950000,0,0,0
7.491,0.0873000,0.0161000,9.6648000,57.4112000,57.8079000,59.0668000,-40.7650000,-13.1290000,3.8380000,101223.950000,0,0,0
7.501,0.0861000,0.0161000,9.6660000,57.3883000,58.0826000,59.0668000,-41.2600000,-13.1820000,3.8610000,101224.130000,0,0,0
7.511,0.0802000,0.0150000,9.6612000,57.3730000,58.2657000,59.0744000,-40.8530000,-12.9890000,4.1860000,101224.130000,0,0,0
7.521,0.0718000,0.0138000,9.6541000,57.3730000,58.2199000,59.0820000,-40.7000000,-13.0650000,4.1320000,101220.340000,0,0,0
7.531,0.0670000,0.0138000,9.6481000,57.3883000,57.9453000,59.0744000,-40.8970000,-12.9750000,4.2890000,101220.340000,0,0,0
7.541,0.0670000,0.0138000,9.6481000,57.4112000,57.5409000,59.0744000,-40.7050000,-13.0120000,4.8990000,101220.270000,0,0,0
7.551,0.0718000,-0.1136000,-0.0006000,56.6864000,57.2510000,58.6548000,-40.8960000,-12.9220000,4.8420000,101220.270000,0,0,0
7.561,0.0837000,0.0150000,9.6624000,57.4493000,57.0831000,59.0591000,-40.7580000,-13.0160000,5.4990000,101219.880000,0,0,0
7.571,0.0885000,0.0150000,9.6678000,56.6864000,57.2510000,58.6548000,-40.8970000,-13.0460000,5.0910000,101219.880000,0,0,0
7.581,0.0897000,0.0126000,9.6696000,57.4188000,57.6324000,59.0820000,-40.8900000,-12.7520000,4.9640000,101224.110000,0,0,0
7.689,-17.4616000,3.1409000,0.0000000,58.1589000,-189.3997000,43.5257000,-40.8690000,-12.9180000,4.6780000,101221.520000,0,0,0
7.699,0.0634000,0.0090000,9.6481000,57.3959000,58.0826000,59.0668000,-40.8610000,-12.8510000,4.4980000,101221.520000,0,0,0
7.709,0.0646000,0.0090000,9.6493000,57.4188000,57.7469000,59.0668000,-41.1180000,-13.2610000,5.4490000,101221.570000,0,0,0
7.719,0.0706000,0.0114000,9.6552000,57.4341000,57.5104000,59.0668000,-40.9400000,-12.9100000,5.0460000,101221.570000,0,0,0
7.729,0.0766000,0.0144000,-0.0006000,56.6864000,57.2510000,58.6548000,-41.0920000,-12.7390000,4.7350000,101219.910000,0,0,0
7.739,0.0813000,0.0185000,9.6648000,57.4188000,57.6553000,59.0591000,-41.2670000,-12.8930000,4.9330000,101219.910000,0,0,0
7.749,0.0802000,0.0197000,9.6636000,57.3959000,57.8995000,59.0668000,-41.0610000,-13.2680000,5.0350000,101220.270000,0,0,0
7.759,0.0742000,0.0185000,9.6576000,57.3807000,58.0826000,59.0820000,-40.9330000,-13.1980000,4.7860000,101220.270000,0,0,0
7.769,0.0718000,0.0161000,9.6541000,57.3730000,58.0292000,59.0973000,-40.9200000,-13.0200000,5.1530000,101223.910000,0,0,0
7.779,0.0706000,0.0150000,9.6541000,57.3730000,57.9071000,59.0973000,-40.9740000,-12.8780000,4.6400000,101223.910000,0,0,0
7.789,0.0706000,0.0138000,9.6541000,57.3807000,57.7545000,59.0973000,-40.9310000,-12.8940000,4.7100000,101220.270000,0,0,0
7.799,0.0742000,0.0150000,9.6576000,57.3883000,57.6401000,59.1049000,-40.8070000,-13.1860000,4.4280000,101220.270000,0,0,0
7.809,0.0790000,0.0161000,9.6600000,57.3883000,57.6477000,59.1049000,-41.1070000,-12.9990000,4.7630000,101220.270000,0,0,0
7.819,0.0790000,0.0173000,9.6624000,57.3807000,57.7316000,59.0973000,-41.0350000,-12.9190000,4.9120000,101220.270000,0,0,0
7.829,0.0790000,0.0167000,-0.0006000,56.6864000,57.2510000,58.6548000,-41.1010000,-12.8560000,4.8640000,101222.340000,0,0,0
7.839,0.0778000,0.0150000,9.6624000,57.3730000,57.9681000,59.0973000,-41.1270000,-12.9680000,4.5470000,101222.340000,0,0,0
7.849,0.0754000,0.0150000,9.6600000,57.3730000,58.0215000,59.0973000,-40.9370000,-12.9280000,5.0130000,101220.500000,0,0,0
7.859,0.0718000,0.0150000,9.6564000,57.3730000,57.9758000,59.0973000,-41.1480000,-13.1190000,4.3980000,101220.500000,0,0,0
7.869,0.0694000,0.0138000,9.6541000,57.3807000,57.8384000,59.0973000,-41.0200000,-13.0400000,3.9240000,101224.860000,0,0,0
7.879,0.0706000,0.0138000,9.6552000,57.3959000,57.6935000,59.0897000,-41.0690000,-12.9030000,4.3080000,101224.860000,0,0,0
7.889,0.0730000,0.0126000,9.6564000,57.3959000,57.6172000,59.0897000,-41.1180000,-13.2840000,4.7110000,101222.780000,0,0,0
7.899,0.0766000,0.0126000,9.6600000,57.4036000,57.6553000,59.0820000,-41.0160000,-13.2020000,4.6210000,101222.780000,0,0,0
7.909,0.0778000,0.0126000,9.6624000,57.3883000,57.7774000,59.0820000,-41.1290000,-13.1430000,4.4250000,101220.350000,0,0,0
7.919,0.0766000,0.0138000,9.6612000,57.3807000,57.8918000,59.0897000,-40.9940000,-13.0940000,4.6780000,101220.350000,0,0,0
7.929,0.0766000,0.0150000,9.6588000,57.3807000,57.9453000,59.0973000,-41.0870000,-13.1720000,4.2350000,101220.410000,0,0,0
7.966,0.0742000,0.0150000,9.6552000,57.4112000,57.6019000,59.0973000,-40.9180000,-13.1670000,4.3270000,101222.320000,0,0,0
7.976,0.0754000,0.0150000,9.6552000,57.4112000,57.5409000,59.0973000,-41.0270000,-13.2630000,4.5610000,101222.320000,0,0,0
7.986,0.0754000,0.0150000,9.6576000,57.4188000,57.4570000,59.0973000,-41.1220000,-12.9560000,3.8950000,101220.600000,0,0,0
7.996,0.0766000,0.0161000,9.6600000,57.4265000,57.4570000,59.0973000,-40.6770000,-13.0120000,4.5280000,101220.600000,0,0,0
8.006,0.0790000,0.0161000,9.6612000,57.4265000,57.5409000,59.0973000,-40.5950000,-12.9370000,4.3870000,101220.400000,0,0,0
8.016,0.0802000,0.0150000,9.6600000,57.4188000,57.6324000,59.1049000,-40.7890000,-12.6870000,4.1520000,101220.400000,0,0,0
8.026,0.0790000,0.0150000,9.6600000,57.4112000,57.6935000,59.0973000,-41.1320000,-13.1760000,4.6430000,101220.380000,0,0,0
8.036,0.0778000,0.0138000,9.6600000,57.4112000,57.6859000,59.0973000,-41.1350000,-12.7750000,4.9720000,101220.380000,0,0,0
8.046,0.0754000,0.0114000,9.6576000,57.4112000,57.6019000,59.0820000,-41.1140000,-12.8820000,5.1320000,101220.450000,0,0,0
8.056,0.0742000,0.0114000,9.6564000,57.4188000,57.4493000,59.0744000,-41.6080000,-12.9550000,4.8040000,101220.450000,0,0,0
8.066,0.0754000,0.0102000,9.6576000,57.4265000,57.3044000,59.0668000,-41.0180000,-13.0170000,5.0950000,101220.240000,0,0,0
8.076,0.0790000,0.0114000,9.6612000,57.4265000,57.2357000,59.0744000,-41.1300000,-12.7340000,4.4670000,101220.240000,0,0,0
8.086,0.0813000,0.0126000,9.6636000,57.4112000,57.2739000,59.0820000,-41.1030000,-12.8790000,4.8720000,101221.820000,0,0,0
8.096,0.0813000,0.0138000,9.6636000,57.4036000,57.3883000,59.0897000,-41.2490000,-13.2280000,5.3790000,101221.820000,0,0,0
8.133,-0.4426000,0.1932000,0.7656000,56.6940000,57.3807000,58.7845000,-41.2230000,-12.7840000,4.7770000,101216.400000,0,0,0
8.143,0.0861000,0.0138000,9.6600000,57.4265000,57.3883000,59.0973000,-41.1120000,-13.1260000,4.7020000,101216.400000,0,0,0
8.153,0.0909000,0.0150000,9.6636000,57.4112000,57.5562000,59.0973000,-41.2310000,-13.2170000,5.1020000,101221.620000,0,0,0
8.163,0.0945000,0.0161000,9.6672000,57.3959000,57.8156000,59.1049000,-41.1580000,-13.0730000,4.7570000,101221.620000,0,0,0
8.173,0.0921000,0.0150000,9.6648000,57.3807000,58.0673000,59.1125000,-41.2110000,-13.2400000,5.0180000,101220.770000,0,0,0
8.183,0.0897000,0.0126000,9.6624000,57.3730000,58.2199000,59.1125000,-41.0900000,-13.0020000,4.6170000,101220.770000,0,0,0
8.193,0.0849000,0.0126000,9.6576000,57.3730000,58.2199000,59.1125000,-41.4180000,-13.0740000,4.7120000,101220.270000,0,0,0
8.203,0.0802000,0.0126000,9.6529000,57.3883000,58.0368000,59.0973000,-41.3440000,-13.2580000,4.7830000,101220.270000,0,0,0
8.213,0.0802000,0.0138000,9.6517000,57.4112000,57.7469000,59.0897000,-41.1950000,-13.1160000,4.9210000,101224.480000,0,0,0
8.223,0.0825000,0.0150000,9.6552000,57.4265000,57.4951000,59.0820000,-41.4170000,-13.3320000,4.6200000,101224.480000,0,0,0
8.233,0.0873000,0.0150000,9.6600000,57.4341000,57.3502000,59.0744000,-41.4510000,-12.9630000,3.9640000,101219.880000,0,0,0
8.243,0.0933000,0.0138000,9.6660000,57.4417000,57.3883000,59.0744000,-41.5000000,-13.2280000,4.7840000,101219.880000,0,0,0
8.253,0.0933000,0.0126000,9.6660000,57.4417000,57.5714000,59.0744000,-41.3300000,-13.0360000,4.7270000,101221.520000,0,0,0
8.263,0.0909000,0.0114000,9.6636000,57.4341000,57.7316000,59.0820000,-41.2880000,-13.3460000,4.3460000,101221.520000,0,0,0
8.273,0.0873000,0.0102000,9.6600000,57.4265000,57.8308000,59.0897000,-41.1560000,-12.8610000,4.2970000,101221.800000,0,0,0
8.283,0.0849000,0.0114000,9.6576000,57.4265000,57.8308000,59.0897000,-41.3160000,-13.1950000,5.0460000,101221.800000,0,0,0
8.293,0.0813000,0.0138000,9.6541000,57.4188000,57.7240000,59.0897000,-41.3800000,-13.0510000,4.6620000,101224.250000,0,0,0
8.303,0.0813000,0.0173000,9.6541000,57.4188000,57.5485000,59.0820000,-41.7150000,-13.0050000,5.0420000,101224.250000,0,0,0
8.313,0.0849000,0.0173000,9.6564000,57.4188000,57.4417000,59.0897000,-41.1510000,-12.8620000,4.5400000,101222.440000,0,0,0
8.323,0.0885000,0.0173000,9.6612000,57.4188000,57.4493000,59.0973000,-41.5450000,-12.8920000,4.6530000,101222.440000,0,0,0
8.333,0.0921000,0.0173000,9.6648000,57.4188000,57.5638000,59.1049000,-41.3670000,-12.9360000,4.4740000,101224.130000,0,0,0
8.343,0.0921000,0.0173000,9.6648000,57.4036000,57.7469000,59.1125000,-41.2200000,-12.6800000,4.6430000,101224.130000,0,0,0
8.353,0.0897000,0.0173000,9.6636000,57.4036000,57.8766000,59.1049000,-41.1240000,-13.1310000,4.2630000,101221.590000,0,0,0
8.363,0.0873000,-0.1136000,-0.0006000,56.6864000,57.2510000,58.6548000,-41.3290000,-13.2010000,4.3460000,101221.590000,0,0,0
8.373,0.0849000,0.0161000,9.6600000,57.4112000,57.8690000,59.1049000,-41.3220000,-13.0990000,4.1610000,101220.500000,0,0,0
8.383,0.0861000,0.0161000,9.6588000,57.4188000,57.7621000,59.0973000,-41.3700000,-12.9400000,4.7070000,101220.500000,0,0,0
8.393,0.0861000,0.0173000,9.6576000,57.4341000,57.6630000,59.0897000,-41.3310000,-12.8800000,4.8850000,101220.410000,0,0,0
8.403,0.0873000,0.0173000,9.6564000,57.4341000,57.6096000,59.0820000,-41.2410000,-12.8670000,4.5760000,101220.410000,0,0,0
8.413,0.0885000,0.0161000,9.6564000,57.4341000,57.6172000,59.0820000,-41.1430000,-12.9480000,4.5290000,101220.390000,0,0,0
8.423,0.0885000,0.0150000,9.6564000,57.4265000,57.6553000,59.0897000,-41.2080000,-12.6320000,4.2160000,101220.390000,0,0,0
8.433,0.0897000,0.0138000,9.6576000,57.4188000,57.7240000,59.1049000,-41.1360000,-12.7760000,4.3300000,101223.550000,0,0,0
8.443,-0.4432000,0.1926000,-0.0006000,56.6864000,57.2510000,58.6548000,-41.2310000,-12.8640000,4.8040000,101223.550000,0,0,0
8.453,0.0933000,0.0114000,9.6576000,57.4036000,57.9300000,59.1125000,-41.1070000,-13.0480000,4.7360000,101220.520000,0,0,0
8.463,0.0957000,0.0114000,9.6588000,57.4036000,58.0215000,59.0973000,-40.8930000,-12.8260000,3.9850000,101220.520000,0,0,0
8.473,0.0957000,0.0150000,9.6600000,57.3959000,58.1360000,59.0897000,-41.0720000,-12.7620000,4.2840000,101220.170000,0,0,0
8.483,0.0945000,0.0173000,9.6612000,57.3883000,58.2581000,59.0820000,-40.9610000,-12.8870000,4.2940000,101220.170000,0,0,0
8.493,0.0885000,0.0197000,9.6600000,57.3883000,58.3420000,59.0744000,-41.1200000,-13.0830000,4.1430000,101220.310000,0,0,0
8.503,0.0849000,0.0185000,9.6576000,57.3883000,58.2962000,59.0744000,-41.2980000,-13.2050000,4.7800000,101220.310000,0,0,0
8.513,0.0825000,0.0173000,9.6552000,57.3959000,58.1589000,59.0820000,-41.2140000,-12.9620000,3.5080000,101220.510000,0,0,0
8.523,0.0825000,0.0150000,9.6541000,57.4112000,57.9605000,59.0820000,-41.2090000,-13.0370000,3.6750000,101220.510000,0,0,0
8.533,0.0861000,0.0126000,9.6552000,57.4265000,57.7927000,59.0820000,-41.1520000,-12.7930000,3.8800000,101220.240000,0,0,0
8.543,0.0909000,0.0114000,9.6600000,57.4265000,57.7621000,59.0744000,-41.3370000,-12.9210000,4.1500000,101220.240000,0,0,0
8.553,0.0945000,0.0114000,9.6624000,57.4112000,57.9147000,59.0744000,-40.8710000,-13.1640000,3.9960000,101216.400000,0,0,0
8.563,0.0933000,0.0114000,9.6636000,57.3959000,58.1284000,59.0744000,-41.2270000,-13.0320000,4.2210000,101216.400000,0,0,0
8.573,0.0885000,0.0138000,9.6600000,57.3883000,58.2657000,59.0744000,-40.9720000,-12.7410000,3.9400000,101224.290000,0,0,0
8.583,0.0813000,0.0138000,9.6552000,57.3807000,58.2581000,59.0820000,-41.3140000,-12.5370000,4.6610000,101224.290000,0,0,0
8.593,0.0754000,0.0138000,9.6517000,57.3883000,58.0750000,59.0897000,-41.5400000,-12.7580000,4.2370000,101220.370000,0,0,0
8.603,0.0730000,0.0126000,9.6505000,57.3959000,57.7927000,59.0973000,-41.2870000,-12.8910000,4.4170000,101220.370000,0,0,0
8.613,0.0766000,0.0126000,9.6541000,57.4036000,57.5409000,59.0973000,-41.5000000,-12.5960000,3.9510000,101223.740000,0,0,0
8.623,0.0825000,0.0138000,9.6600000,57.4112000,57.4722000,59.1049000,-41.1960000,-12.8500000,4.0230000,101223.740000,0,0,0
8.633,0.0885000,0.0161000,9.6648000,57.4036000,57.5943000,59.1049000,-41.3740000,-12.3100000,3.8460000,101224.220000,0,0,0
8.643,0.0885000,0.0173000,9.6636000,57.3883000,57.8232000,59.1049000,-41.4230000,-12.4890000,4.5530000,101224.220000,0,0,0
8.653,0.0837000,0.0185000,-0.0006000,56.6864000,57.2510000,58.6548000,-41.3550000,-12.8020000,3.7690000,101220.050000,0,0,0
8.663,0.0813000,0.0185000,9.6588000,57.3883000,58.0368000,59.0973000,-41.3570000,-12.9400000,4.2690000,101220.050000,0,0,0
8.673,0.0802000,0.0185000,9.6588000,57.3959000,58.0368000,59.0820000,-41.4030000,-12.7210000,4.6220000,101220.240000,0,0,0
8.683,0.0790000,0.0173000,9.6588000,57.3959000,57.9834000,59.0820000,-41.6310000,-12.8860000,4.6030000,101220.240000,0,0,0
8.693,0.0790000,0.0138000,9.6588000,57.3959000,57.9071000,59.0820000,-41.3940000,-12.9260000,4.4930000,101220.240000,0,0,0
8.703,0.0790000,0.0126000,9.6588000,57.4036000,57.8232000,59.0744000,-41.5110000,-13.0440000,4.5160000,101220.240000,0,0,0
8.713,0.0802000,0.0114000,9.6600000,57.4112000,57.7469000,59.0744000,-41.5770000,-12.9250000,4.3610000,101222.460000,0,0,0
8.723,0.0813000,0.0114000,9.6612000,57.4112000,57.7087000,59.0744000,-41.4450000,-13.0790000,4.4560000,101222.460000,0,0,0
8.733,0.0802000,0.0126000,9.6600000,57.4188000,57.6782000,59.0744000,-41.5770000,-12.7950000,4.1660000,101221.700000,0,0,0
8.743,0.0790000,0.0126000,9.6600000,57.4265000,57.6248000,59.0744000,-41.2540000,-12.7930000,4.2810000,101221.700000,0,0,0
8.753,0.0802000,0.0138000,9.6600000,57.4417000,57.6096000,59.0744000,-41.5240000,-12.7490000,4.7510000,101224.060000,0,0,0
8.763,0.0837000,0.0138000,9.6636000,57.4493000,57.6477000,59.0744000,-41.4780000,-13.0470000,5.0130000,101224.060000,0,0,0
8.773,0.0861000,0.0138000,9.6660000,57.4493000,57.7698000,59.0744000,-41.8810000,-13.1220000,4.9840000,101220.050000,0,0,0
8.783,0.0873000,0.0138000,9.6636000,57.4341000,57.9224000,59.0744000,-41.7650000,-13.1280000,4.4450000,101220.050000,0,0,0
8.793,0.0861000,0.0138000,9.6612000,57.4188000,58.0673000,59.0820000,-41.3430000,-12.8670000,5.0680000,101224.040000,0,0,0
8.803,0.0837000,0.0138000,9.6588000,57.4188000,58.1512000,59.0820000,-41.7240000,-12.9500000,5.0780000,101224.040000,0,0,0
8.813,0.0849000,0.0126000,9.6576000,57.4188000,58.1894000,59.0820000,-41.2030000,-12.6630000,5.1350000,101219.980000,0,0,0
8.823,0.0873000,0.0102000,9.6600000,57.4188000,58.2809000,59.0820000,-41.4110000,-12.8140000,4.3710000,101219.980000,0,0,0
8.833,0.0885000,0.0114000,9.6624000,57.4112000,58.4412000,59.0897000,-41.5080000,-12.6540000,4.2270000,101221.580000,0,0,0
8.843,0.0873000,0.0126000,9.6636000,57.3959000,58.6243000,59.0820000,-41.2910000,-12.8160000,4.6310000,101221.580000,0,0,0
8.853,0.0825000,0.0138000,9.6624000,57.3883000,58.7616000,59.0820000,-41.3010000,-12.4020000,5.1270000,101224.130000,0,0,0
8.863,0.0778000,0.0161000,9.6564000,57.3807000,58.8226000,59.0744000,-41.3760000,-12.9810000,4.7330000,101224.130000,0,0,0
8.873,0.0694000,0.0173000,9.6517000,57.3807000,58.7311000,59.0744000,-41.4430000,-12.3370000,4.6710000,101219.880000,0,0,0
8.883,0.0646000,0.0161000,9.6481000,57.3883000,58.4641000,59.0668000,-41.5650000,-12.7540000,4.1890000,101219.880000,0,0,0
8.893,0.0634000,0.0161000,9.6481000,57.4036000,58.1131000,59.0668000,-41.6850000,-12.8820000,5.0540000,101219.840000,0,0,0
8.903,0.0670000,0.0161000,9.6505000,57.4265000,57.7850000,59.0668000,-41.3010000,-12.7400000,4.8920000,101219.840000,0,0,0
8.913,0.0718000,0.0161000,9.6564000,57.4341000,57.6096000,59.0668000,-41.4460000,-12.8210000,4.3380000,101223.950000,0,0,0
8.923,0.0778000,0.0150000,9.6636000,57.4265000,57.6248000,59.0744000,-41.5080000,-13.1280000,4.5600000,101223.950000,0,0,0
8.933,14.7532000,2.9877000,0.0000000,57.1823000,-193.3060000,43.5257000,-41.3970000,-12.9800000,4.7230000,101221.580000,0,0,0
8.943,0.0802000,0.0102000,9.6672000,57.3807000,58.0597000,59.0897000,-41.5200000,-12.8250000,5.0370000,101221.580000,0,0,0
8.953,0.0766000,0.0078000,9.6636000,57.3578000,58.2733000,59.0973000,-41.4950000,-12.7700000,4.7310000,101223.840000,0,0,0
8.963,0.0682000,0.0078000,9.6576000,57.3502000,58.3267000,59.0973000,-41.7730000,-13.3090000,4.5320000,101223.840000,0,0,0
8.973,0.0622000,0.0102000,9.6541000,57.3502000,58.1894000,59.1049000,-41.6090000,-12.9780000,4.4790000,101223.660000,0,0,0
8.983,0.0610000,0.0126000,9.6541000,57.3730000,57.9529000,59.1049000,-41.4210000,-12.6380000,4.4120000,101223.660000,0,0,0
8.993,0.0646000,0.0150000,9.6564000,57.3959000,57.7545000,59.1049000,-41.6710000,-12.9680000,4.1350000,101225.620000,0,0,0
9.003,0.0682000,0.0150000,9.6588000,57.4036000,57.6477000,59.0973000,-41.4630000,-12.9030000,4.6420000,101225.620000,0,0,0
9.013,0.0706000,0.0150000,9.6612000,57.4112000,57.6324000,59.0973000,-41.5970000,-13.1240000,4.0400000,101223.930000,0,0,0
9.023,0.0706000,0.0138000,9.6612000,57.4112000,57.6935000,59.0897000,-41.7680000,-12.8870000,4.1640000,101223.930000,0,0,0
9.033,0.0694000,0.0138000,9.6600000,57.4036000,57.7698000,59.0820000,-41.4560000,-13.0170000,4.5830000,101223.390000,0,0,0
9.043,0.0694000,0.0126000,9.6588000,57.3959000,57.8232000,59.0897000,-41.5930000,-13.1190000,4.5270000,101223.390000,0,0,0
9.053,0.0670000,0.0114000,9.6576000,57.3959000,57.8613000,59.0973000,-41.6370000,-12.9180000,4.0230000,101223.730000,0,0,0
9.063,0.0658000,0.0114000,9.6552000,57.4036000,57.8384000,59.1125000,-41.3530000,-13.3090000,3.7930000,101223.730000,0,0,0
9.073,0.0670000,0.0126000,9.6541000,57.4112000,57.7621000,59.1202000,-41.3960000,-12.8650000,4.2470000,101220.350000,0,0,0
9.083,0.0706000,0.0138000,9.6552000,57.4112000,57.6935000,59.1202000,-41.5190000,-12.8660000,4.3680000,101220.350000,0,0,0
9.093,0.0742000,0.0150000,9.6576000,57.4188000,57.6859000,59.1125000,-41.2210000,-12.8250000,4.1050000,101222.350000,0,0,0
9.103,0.0754000,0.0150000,9.6588000,57.4188000,57.7240000,59.0973000,-41.2150000,-12.7910000,4.1040000,101222.350000,0,0,0
9.113,0.0742000,0.0138000,9.6588000,57.4112000,57.7621000,59.0897000,-41.5170000,-12.8070000,4.1690000,101219.990000,0,0,0
9.123,0.0718000,0.0126000,9.6588000,57.4036000,57.7774000,59.0820000,-41.4790000,-12.7330000,3.8500000,101219.990000,0,0,0
9.133,0.0694000,0.0126000,9.6576000,57.3959000,57.7774000,59.0744000,-41.5530000,-13.1600000,4.2520000,101220.350000,0,0,0
9.143,0.0682000,0.0126000,9.6564000,57.3959000,57.7621000,59.0897000,-41.6210000,-12.6380000,3.9350000,101220.350000,0,0,0
9.153,0.0694000,0.0126000,9.6552000,57.3959000,57.7087000,59.0973000,-41.4440000,-12.9490000,3.5910000,101223.580000,0,0,0
9.163,0.0706000,0.0138000,9.6552000,57.4188000,57.6401000,59.0973000,-41.5200000,-12.7230000,4.0490000,101223.580000,0,0,0
9.173,0.0742000,0.0138000,9.6564000,57.4341000,57.5943000,59.0897000,-41.5990000,-12.9530000,4.4250000,101220.180000,0,0,0
9.183,0.0766000,0.0138000,9.6600000,57.4417000,57.6248000,59.0744000,-41.3840000,-12.8240000,4.4650000,101220.180000,0,0,0
9.193,0.0778000,0.0138000,9.6636000,57.4341000,57.7393000,59.0668000,-41.4930000,-12.7470000,4.1480000,101220.410000,0,0,0
9.203,0.0778000,0.0150000,9.6660000,57.4265000,57.9300000,59.0668000,-41.6570000,-12.9260000,4.4640000,101220.410000,0,0,0
9.213,0.0754000,0.0161000,9.6660000,57.4112000,58.1436000,59.0744000,-41.6820000,-12.7130000,4.1930000,101220.030000,0,0,0
9.223,0.0706000,0.0161000,9.6636000,57.3959000,58.3038000,59.0820000,-41.4560000,-12.8670000,3.7760000,101220.030000,0,0,0
9.233,0.0658000,0.0150000,9.6576000,57.3959000,58.3191000,59.0820000,-41.3880000,-12.8570000,4.3220000,101223.740000,0,0,0
9.243,0.0634000,0.0161000,9.6541000,57.3959000,58.2047000,59.0820000,-41.5060000,-12.8600000,4.2500000,101223.740000,0,0,0
9.253,0.0610000,0.0161000,9.6517000,57.4036000,57.9834000,59.0820000,-41.3530000,-12.7210000,4.3250000,101220.550000,0,0,0
9.263,0.0622000,0.0173000,9.6517000,57.4112000,57.7469000,59.0744000,-41.6390000,-12.9360000,4.1740000,101220.550000,0,0,0
9.273,0.0646000,0.0185000,9.6529000,57.4265000,57.5714000,59.0668000,-41.3940000,-12.7900000,4.6480000,101221.540000,0,0,0
9.283,0.0694000,0.0173000,9.6564000,57.4265000,57.5027000,59.0668000,-41.6210000,-12.8750000,4.9550000,101221.540000,0,0,0
9.293,0.0718000,0.0150000,9.6576000,57.4188000,57.5333000,59.0744000,-41.4120000,-12.6220000,4.1390000,101224.200000,0,0,0
9.303,0.0730000,0.0114000,9.6576000,57.4112000,57.6172000,59.0820000,-41.3730000,-12.7550000,4.2320000,101224.200000,0,0,0
9.313,0.0718000,0.0102000,9.6564000,57.4112000,57.6630000,59.0897000,-41.6670000,-12.5820000,4.1330000,101220.410000,0,0,0
9.323,0.0706000,0.0102000,9.6552000,57.4112000,57.6477000,59.0897000,-41.8220000,-13.0060000,3.9430000,101220.410000,0,0,0
9.333,0.0694000,0.0114000,9.6552000,57.4188000,57.5638000,59.0897000,-41.4300000,-12.6770000,4.6520000,101221.580000,0,0,0
9.343,0.0694000,0.0150000,9.6541000,57.4265000,57.4646000,59.0820000,-41.6740000,-12.6840000,4.6400000,101221.580000,0,0,0
9.353,0.0730000,0.0161000,9.6552000,57.4341000,57.3807000,59.0744000,-41.5320000,-12.7000000,3.9540000,101224.000000,0,0,0
9.363,0.0766000,0.0161000,9.6588000,57.4341000,57.3959000,59.0668000,-41.6950000,-12.8700000,4.2620000,101224.000000,0,0,0
9.373,0.0802000,0.0161000,9.6612000,57.4265000,57.5027000,59.0668000,-41.4500000,-12.6810000,4.0630000,101224.270000,0,0,0
9.383,0.0825000,0.0150000,9.6624000,57.4188000,57.6706000,59.0668000,-41.5190000,-12.7870000,4.4790000,101224.270000,0,0,0
9.393,0.0813000,0.0150000,9.6612000,57.4036000,57.8384000,59.0668000,-41.6560000,-12.7090000,4.5790000,101224.090000,0,0,0
9.403,0.0778000,0.0138000,9.6600000,57.4036000,57.9300000,59.0668000,-41.4460000,-12.8500000,4.5630000,101224.090000,0,0,0
9.413,0.0742000,0.0126000,9.6576000,57.4036000,57.9300000,59.0744000,-41.6060000,-12.7020000,4.7080000,101216.530000,0,0,0
9.423,0.0730000,0.0126000,9.6564000,57.4036000,57.8613000,59.0744000,-41.8980000,-13.0160000,4.4890000,101216.530000,0,0,0
9.433,0.0730000,0.0138000,9.6576000,57.4112000,57.7774000,59.0744000,-41.5900000,-12.5850000,4.7670000,101221.630000,0,0,0
9.443,0.0754000,0.0138000,9.6588000,57.4112000,57.7393000,59.0668000,-41.4780000,-12.8240000,4.5920000,101221.630000,0,0,0
9.453,0.0778000,0.0138000,9.6612000,57.4112000,57.7927000,59.0668000,-41.7270000,-12.8450000,4.8320000,101218.180000,0,0,0
9.463,0.0790000,0.0138000,9.6624000,57.4036000,57.8918000,59.0668000,-41.9030000,-12.7420000,4.8090000,101218.180000,0,0,0
9.473,0.0754000,0.0138000,9.6612000,57.3959000,57.9758000,59.0744000,-41.3000000,-13.1780000,4.3920000,101221.520000,0,0,0
9.483,0.0730000,0.0138000,9.6576000,57.3883000,57.9758000,59.0820000,-41.6050000,-13.1610000,5.2250000,101221.520000,0,0,0
9.493,0.0694000,0.0138000,9.6517000,57.3883000,57.8461000,59.0897000,-41.9340000,-12.8010000,4.7470000,101220.590000,0,0,0
9.503,0.0682000,0.0138000,9.6517000,57.3959000,57.6096000,59.0897000,-41.7950000,-12.7980000,5.2150000,101220.590000,0,0,0
9.513,0.0706000,0.0126000,9.6541000,57.4112000,57.3730000,59.0897000,-41.5790000,-12.8400000,4.7850000,101216.600000,0,0,0
9.523,0.0754000,0.0138000,9.6588000,57.4188000,57.2357000,59.0897000,-41.3940000,-12.6760000,4.5860000,101216.600000,0,0,0
9.533,0.0813000,0.0138000,9.6636000,57.4341000,57.2586000,59.0973000,-41.4830000,-12.8650000,4.7240000,101223.740000,0,0,0
9.543,0.0837000,0.0150000,9.6648000,57.4341000,57.4265000,59.0973000,-41.4210000,-12.8250000,4.7420000,101223.740000,0,0,0
9.553,0.0849000,0.0161000,9.6648000,57.4265000,57.6553000,59.0973000,-41.6030000,-12.7780000,4.2500000,101220.410000,0,0,0
9.563,0.0825000,0.0161000,9.6624000,57.4188000,57.8308000,59.0973000,-41.4580000,-12.8770000,4.4810000,101220.410000,0,0,0
9.573,0.0790000,0.0150000,9.6576000,57.4112000,57.8766000,59.0897000,-41.7510000,-12.8550000,5.2070000,101222.340000,0,0,0
9.583,0.0754000,0.0161000,9.6529000,57.4112000,57.7698000,59.0973000,-41.4430000,-12.9550000,5.0030000,101222.340000,0,0,0
9.593,0.0730000,0.0161000,9.6505000,57.4188000,57.5562000,59.0973000,-41.3040000,-12.9310000,4.7010000,101220.290000,0,0,0
9.603,0.0754000,0.0150000,9.6541000,57.4417000,57.2357000,59.0973000,-41.4480000,-13.1250000,4.0950000,101220.290000,0,0,0
9.613,0.0825000,0.0150000,9.6576000,57.4493000,57.1289000,59.0973000,-41.3620000,-12.7310000,3.8780000,101221.760000,0,0,0
9.623,0.0885000,0.0150000,9.6624000,57.4417000,57.2281000,59.0973000,-41.7310000,-13.0420000,4.1920000,101221.760000,0,0,0
9.633,0.0909000,0.0150000,9.6660000,57.4188000,57.5027000,59.0973000,-41.3330000,-13.0310000,4.6780000,101219.100000,0,0,0
9.643,0.0897000,0.0138000,9.6648000,57.3959000,57.7927000,59.0973000,-41.2310000,-13.2440000,4.5130000,101219.100000,0,0,0
9.653,0.0849000,0.0138000,9.6588000,57.3807000,57.9605000,59.0973000,-41.3640000,-13.1570000,4.7610000,101221.970000,0,0,0
9.663,0.0790000,0.0150000,9.6529000,57.3883000,57.9529000,59.0973000,-41.5580000,-13.1500000,4.6690000,101221.970000,0,0,0
9.673,0.0754000,0.0150000,9.6493000,57.4036000,57.7469000,59.0897000,-41.1740000,-12.8140000,4.0830000,101222.220000,0,0,0
9.683,0.0742000,0.0161000,9.6505000,57.4341000,57.4341000,59.0820000,-41.5560000,-12.9880000,4.4310000,101222.220000,0,0,0
9.693,0.0766000,0.0173000,9.6517000,57.4570000,57.1518000,59.0820000,-41.6960000,-12.7060000,4.4240000,101219.930000,0,0,0
9.703,0.0813000,0.0173000,9.6541000,57.4722000,56.9611000,59.0973000,-41.6020000,-12.9270000,3.9230000,101219.930000,0,0,0
9.713,0.0897000,0.0161000,9.6612000,57.4646000,56.9992000,59.1125000,-41.4540000,-12.8150000,5.2260000,101224.200000,0,0,0
9.723,0.0969000,0.0126000,9.6660000,57.4341000,57.2662000,59.1354000,-41.5220000,-12.8970000,4.4770000,101224.200000,0,0,0
9.733,0.0981000,0.0102000,9.6660000,57.4112000,57.6096000,59.1431000,-41.3660000,-12.9990000,4.8270000,101223.850000,0,0,0
9.743,0.0945000,0.0090000,9.6612000,57.4036000,57.8613000,59.1431000,-41.5610000,-13.0800000,4.4830000,101223.850000,0,0,0
9.753,0.0921000,0.0102000,9.6588000,57.4112000,57.9681000,59.1431000,-41.8120000,-12.8440000,3.7190000,101224.210000,0,0,0
9.763,0.0909000,0.0138000,9.6588000,57.4265000,57.9987000,59.1278000,-41.6890000,-13.1600000,4.4850000,101224.210000,0,0,0
9.773,0.0909000,0.0173000,9.6588000,57.4341000,57.9987000,59.1125000,-41.4360000,-12.9420000,4.4700000,101223.860000,0,0,0
9.783,0.0909000,0.0197000,9.6564000,57.4417000,58.0139000,59.0973000,-41.5530000,-13.2300000,4.3660000,101223.860000,0,0,0
9.793,0.0885000,0.0221000,9.6552000,57.4341000,58.0139000,59.0744000,-41.4230000,-12.8340000,4.3680000,101223.740000,0,0,0
9.803,0.0861000,0.0197000,9.6552000,57.4341000,57.9834000,59.0668000,-41.4360000,-12.9620000,4.6200000,101223.740000,0,0,0
9.813,0.0837000,0.0185000,9.6564000,57.4341000,57.9071000,59.0591000,-41.3850000,-12.6960000,4.7540000,101220.410000,0,0,0
9.823,0.0802000,0.0161000,9.6564000,57.4265000,57.8156000,59.0591000,-41.5530000,-13.0290000,4.8810000,101220.410000,0,0,0
9.833,0.0790000,0.0191000,14.0869000,56.6864000,57.2510000,58.6548000,-41.4550000,-13.0390000,4.2190000,101222.450000,0,0,0
9.843,0.0790000,0.0138000,9.6541000,57.4265000,57.4951000,59.0744000,-41.6600000,-12.7270000,4.3370000,101222.450000,0,0,0
9.853,0.0802000,0.0126000,9.6541000,57.4265000,57.2891000,59.0897000,-41.7280000,-12.8680000,4.4370000,101223.650000,0,0,0
9.863,0.0802000,0.0126000,9.6517000,57.4341000,57.0602000,59.1049000,-41.9400000,-12.7640000,4.2570000,101223.650000,0,0,0
9.873,0.0849000,0.0138000,9.6529000,57.4265000,56.8390000,59.1202000,-41.8080000,-12.7840000,4.0410000,101220.120000,0,0,0
9.883,0.0945000,0.0150000,9.6588000,57.4112000,56.8237000,59.1278000,-41.5850000,-12.9610000,4.2650000,101220.120000,0,0,0
9.893,0.1005000,0.0161000,9.6648000,57.3883000,57.0679000,59.1431000,-41.5950000,-12.8400000,4.0390000,101220.050000,0,0,0
9.903,0.1029000,0.0150000,9.6660000,57.3654000,57.4265000,59.1507000,-41.5990000,-13.3200000,4.6180000,101220.050000,0,0,0
9.913,0.1005000,0.0126000,9.6636000,57.3502000,57.7850000,59.1660000,-41.4490000,-12.8100000,4.5090000,101223.520000,0,0,0
9.923,0.0945000,0.0114000,9.6576000,57.3502000,57.9605000,59.1660000,-41.5050000,-12.6640000,5.0530000,101223.520000,0,0,0
9.933,0.0885000,0.0114000,9.6517000,57.3654000,57.8461000,59.1507000,-41.8240000,-12.8270000,4.0250000,101220.280000,0,0,0
9.943,0.0873000,0.0126000,9.6493000,57.3959000,57.5256000,59.1278000,-41.4370000,-12.7820000,4.5570000,101220.280000,0,0,0
9.953,0.0921000,0.0173000,9.6529000,57.4341000,57.2281000,59.1049000,-41.8580000,-12.9400000,4.5660000,101220.410000,0,0,0
9.963,0.1029000,0.0209000,9.6600000,57.4493000,57.1976000,59.0897000,-41.8400000,-12.9730000,3.6130000,101220.410000,0,0,0
9.973,0.1113000,0.0209000,9.6684000,57.4341000,57.5485000,59.0897000,-41.9680000,-12.9140000,3.9080000,101224.210000,0,0,0
9.983,0.1136000,0.0197000,9.6732000,57.4036000,58.1512000,59.0897000,-41.7430000,-12.7460000,4.5560000,101224.210000,0,0,0
9.993,0.1089000,0.0173000,9.6720000,57.3578000,58.7845000,59.0897000,-41.7790000,-13.0540000,3.8950000,101220.380000,0,0,0
10.003,0.0981000,0.0150000,9.6660000,57.3349000,59.2270000,59.0973000,-41.5480000,-12.9660000,4.3080000,101220.380000,0,0,0
10.013,0.0861000,0.0150000,9.6588000,57.3273000,59.3338000,59.1049000,-41.4230000,-12.7110000,4.6070000,101223.740000,0,0,0
10.023,0.0766000,0.0150000,9.6529000,57.3273000,59.1431000,59.1125000,-41.5660000,-12.7050000,3.9400000,101223.740000,0,0,0
10.033,0.0730000,0.0173000,9.6481000,57.3502000,58.7311000,59.1049000,-41.5380000,-12.6120000,4.3680000,101224.240000,0,0,0
10.043,0.0730000,0.0185000,9.6469000,57.3730000,58.2199000,59.0973000,-41.8320000,-12.8630000,4.6060000,101224.240000,0,0,0
10.053,0.0754000,0.0185000,9.6505000,57.3959000,57.7621000,59.0897000,-41.5520000,-12.6410000,4.1730000,101224.360000,0,0,0
10.063,0.0790000,0.0185000,9.6541000,57.4036000,57.4493000,59.0820000,-41.6350000,-12.7460000,4.1940000,101224.360000,0,0,0
10.073,0.0849000,0.0173000,9.6576000,57.3959000,57.3044000,59.0744000,-41.6650000,-12.7760000,3.7700000,101223.860000,0,0,0
10.083,0.0873000,0.0150000,9.6600000,57.3883000,57.2891000,59.0744000,-41.7830000,-12.6130000,4.3690000,101223.860000,0,0,0
10.093,0.0897000,0.0138000,9.6612000,57.3883000,57.3273000,59.0820000,-42.0010000,-13.0700000,4.7520000,101224.200000,0,0,0
10.103,0.0909000,0.0114000,9.6624000,57.3730000,57.4265000,59.0897000,-41.8980000,-12.7370000,4.7630000,101224.200000,0,0,0
10.113,0.0885000,0.0114000,9.6588000,57.3654000,57.4722000,59.0973000,-41.8130000,-12.7440000,4.8970000,101223.740000,0,0,0
10.123,0.0897000,0.0114000,9.6564000,57.3654000,57.4570000,59.0973000,-41.5960000,-13.0440000,4.5690000,101223.740000,0,0,0
10.133,0.0921000,0.0126000,9.6564000,57.3730000,57.4341000,59.0973000,-41.5440000,-12.8190000,4.7900000,101220.480000,0,0,0
10.143,0.0969000,0.0150000,9.6576000,57.3807000,57.5256000,59.0897000,-41.8490000,-12.6940000,4.5080000,101220.480000,0,0,0
10.153,0.0957000,0.0185000,9.6576000,57.4036000,57.6706000,59.0820000,-41.7880000,-12.8700000,4.7500000,101223.850000,0,0,0
10.163,0.0933000,0.0185000,9.6564000,57.4341000,57.7774000,59.0744000,-41.5420000,-12.9180000,4.0680000,101223.850000,0,0,0
10.173,0.0921000,0.0161000,9.6564000,57.4417000,57.7698000,59.0744000,-41.8260000,-12.9000000,3.8470000,101224.730000,0,0,0
10.183,0.0897000,0.0138000,9.6541000,57.4493000,57.7011000,59.0744000,-41.8610000,-12.7720000,3.5490000,101224.730000,0,0,0
10.193,0.0909000,0.0126000,9.6552000,57.4417000,57.5638000,59.0744000,-41.7150000,-12.8180000,4.6150000,101223.740000,0,0,0
10.203,0.0933000,0.0138000,9.6576000,57.4341000,57.4951000,59.0744000,-41.8930000,-12.8100000,4.3500000,101223.740000,0,0,0
10.213,0.0969000,0.0150000,9.6600000,57.4112000,57.4951000,59.0820000,-41.7200000,-13.1110000,4.4360000,101221.620000,0,0,0
10.223,0.0981000,0.0173000,9.6612000,57.3959000,57.6096000,59.0897000,-41.5900000,-12.5560000,4.4970000,101221.620000,0,0,0
10.233,0.0969000,0.0173000,9.6576000,57.4036000,57.7087000,59.0897000,-41.7440000,-12.7610000,4.1590000,101225.790000,0,0,0
10.243,0.0945000,0.0161000,9.6541000,57.4112000,57.6859000,59.0820000,-41.7770000,-13.0460000,3.8470000,101225.790000,0,0,0
10.253,0.0909000,0.0138000,9.6517000,57.4341000,57.5256000,59.0744000,-41.5940000,-12.8690000,4.0480000,101222.620000,0,0,0
10.263,0.0921000,0.0126000,9.6505000,57.4570000,57.2662000,59.0591000,-41.6820000,-12.7630000,4.2040000,101222.620000,0,0,0
10.273,0.0933000,0.0114000,9.6505000,57.4951000,56.9916000,59.0515000,-41.4510000,-12.8630000,4.1200000,101220.670000,0,0,0
10.283,0.0969000,0.0114000,9.6529000,57.5104000,56.7551000,59.0439000,-41.3250000,-12.8280000,4.5440000,101220.670000,0,0,0
10.293,0.1029000,0.0138000,9.6588000,57.5180000,56.6406000,59.0439000,-41.4260000,-12.6640000,3.6570000,101220.050000,0,0,0
10.303,0.1125000,0.0161000,9.6672000,57.5180000,56.7627000,59.0439000,-41.5880000,-12.9920000,3.9480000,101220.050000,0,0,0
10.313,0.1172000,0.0185000,9.6708000,57.5027000,57.1518000,59.0439000,-41.4810000,-12.7840000,3.9770000,101221.630000,0,0,0
10.323,0.1160000,0.0185000,9.6684000,57.4799000,57.5714000,59.0439000,-41.7420000,-12.9240000,4.0600000,101221.630000,0,0,0
10.333,0.1113000,0.0185000,9.6612000,57.4646000,57.8690000,59.0515000,-41.7370000,-12.8980000,4.2140000,101224.080000,0,0,0
10.343,0.1065000,0.0173000,9.6552000,57.4493000,57.9758000,59.0591000,-41.5240000,-12.7770000,3.7760000,101224.080000,0,0,0
10.353,0.1005000,0.0161000,9.6505000,57.4417000,57.8995000,59.0668000,-41.6870000,-12.8250000,4.5000000,101220.380000,0,0,0
10.363,0.1005000,0.0150000,9.6505000,57.4570000,57.7469000,59.0668000,-41.6850000,-12.6010000,3.8320000,101220.380000,0,0,0
10.373,0.1029000,0.0161000,9.6552000,57.4646000,57.6630000,59.0668000,-41.4750000,-12.7770000,3.6410000,101220.510000,0,0,0
10.383,0.1065000,0.0173000,9.6588000,57.4722000,57.7087000,59.0668000,-41.7190000,-12.9090000,4.2170000,101220.510000,0,0,0
10.393,0.1089000,0.0185000,9.6600000,57.4646000,57.8461000,59.0744000,-41.5360000,-12.9120000,4.1900000,101220.800000,0,0,0
10.403,0.1089000,0.0185000,9.6600000,57.4646000,57.9910000,59.0820000,-41.3930000,-12.8760000,3.8900000,101220.800000,0,0,0
10.413,0.1065000,0.0185000,9.6576000,57.4722000,58.0521000,59.0820000,-41.5260000,-13.0310000,4.6740000,101224.490000,0,0,0
10.423,0.1041000,0.0197000,9.6564000,57.4646000,58.0368000,59.0820000,-41.5780000,-12.7170000,4.3210000,101224.490000,0,0,0
10.433,0.1005000,0.0185000,9.6552000,57.4646000,57.9834000,59.0820000,-41.6760000,-12.6940000,4.5610000,101220.780000,0,0,0
10.443,0.0981000,0.0173000,9.6541000,57.4570000,57.8842000,59.0820000,-41.5380000,-12.8920000,4.3130000,101220.780000,0,0,0
10.453,0.0981000,0.0161000,9.6541000,57.4646000,57.7393000,59.0897000,-41.8900000,-12.7000000,4.9330000,101220.740000,0,0,0
10.463,0.1005000,0.0161000,9.6564000,57.4722000,57.6172000,59.0897000,-41.4390000,-12.8620000,4.9410000,101220.740000,0,0,0
10.473,0.1053000,0.0173000,9.6600000,57.4722000,57.6248000,59.0820000,-41.6270000,-12.6440000,4.7260000,101222.690000,0,0,0
10.483,0.1101000,0.0197000,9.6636000,57.4722000,57.7927000,59.0820000,-41.4050000,-12.7860000,4.2280000,101222.690000,0,0,0
10.493,0.1113000,0.0221000,9.6648000,57.4646000,58.0521000,59.0820000,-41.6330000,-12.8720000,4.0910000,101220.470000,0,0,0
10.503,0.1077000,0.0221000,9.6636000,57.4493000,58.3191000,59.0820000,-41.5020000,-13.0280000,4.8090000,101220.470000,0,0,0
10.513,0.1053000,0.0233000,9.6600000,57.4417000,58.4946000,59.0820000,-41.5510000,-12.5600000,4.4820000,101220.700000,0,0,0
10.523,0.1017000,0.0221000,9.6588000,57.4265000,58.6014000,59.0973000,-41.9180000,-12.8560000,4.6090000,101220.700000,0,0,0
10.631,-5.4294000,2.9877000,0.0000000,56.9382000,205.1315000,43.5257000,-41.6230000,-12.8250000,3.8240000,101220.660000,0,0,0
10.641,-9.2342000,2.3752000,0.0000000,57.6706000,203.1784000,43.5257000,-41.3410000,-12.8590000,4.1800000,101220.660000,0,0,0
10.651,0.0802000,0.0185000,9.6552000,57.4341000,58.9600000,59.1278000,-41.6410000,-12.7430000,4.1100000,101221.910000,0,0,0
10.661,0.0766000,0.0197000,9.6541000,57.4265000,58.9066000,59.1202000,-41.3850000,-13.0460000,3.8710000,101221.910000,0,0,0
10.671,0.0742000,0.0209000,9.6552000,57.4341000,58.7997000,59.1125000,-41.6160000,-12.8130000,3.3240000,101222.590000,0,0,0
10.681,0.0730000,0.0197000,9.6564000,57.4646000,58.7082000,59.1125000,-41.4840000,-12.9380000,4.1410000,101222.590000,0,0,0
10.691,0.0706000,0.0185000,9.6576000,57.4951000,58.5861000,59.1125000,-41.4780000,-13.0610000,4.8560000,101222.800000,0,0,0
10.701,0.0694000,0.0185000,9.6600000,57.5180000,58.4869000,59.1125000,-41.3630000,-13.0890000,4.3250000,101222.800000,0,0,0
10.711,0.0658000,0.0197000,9.6600000,57.5333000,58.4030000,59.1125000,-41.4090000,-12.9410000,3.6080000,101224.390000,0,0,0
10.721,0.0646000,0.0209000,9.6588000,57.5409000,58.3038000,59.1125000,-41.3880000,-12.6100000,3.8880000,101224.390000,0,0,0
10.731,0.0682000,0.0221000,9.6600000,57.5485000,58.2886000,59.1125000,-41.3010000,-12.8610000,4.3510000,101224.390000,0,0,0
10.741,0.0742000,0.0221000,9.6612000,57.5562000,58.3649000,59.1125000,-41.2570000,-12.4370000,3.9710000,101224.390000,0,0,0
10.751,0.0766000,0.0209000,9.6660000,57.5714000,58.5556000,59.1049000,-41.4710000,-12.7090000,4.2220000,101222.840000,0,0,0
10.761,0.0682000,0.0233000,9.6744000,57.6248000,58.8608000,59.1202000,-41.4380000,-12.8270000,4.2650000,101222.840000,0,0,0
10.771,0.0514000,0.0353000,9.6804000,57.7240000,59.2346000,59.1583000,-41.2750000,-12.9870000,4.3070000,101220.330000,0,0,0
10.781,0.0383000,0.0425000,9.7994000,56.6864000,57.2510000,58.6548000,-41.1850000,-12.9390000,4.3580000,101220.330000,0,0,0
10.791,0.0251000,0.0365000,9.6911000,58.1284000,59.8831000,59.2270000,-41.4090000,-12.9550000,5.3700000,101224.730000,0,0,0
10.801,0.0036000,0.0185000,9.6959000,58.4946000,59.9976000,59.4635000,-41.3720000,-12.8110000,4.2970000,101224.730000,0,0,0
10.811,0.0132000,0.0114000,9.6935000,58.9066000,59.9976000,59.8297000,-41.6150000,-12.8760000,3.6390000,101220.450000,0,0,0
10.821,0.0239000,0.0173000,9.6899000,59.2422000,60.0128000,60.0967000,-41.3630000,-12.7090000,4.3840000,101220.450000,0,0,0
10.831,0.0323000,0.0317000,9.6959000,59.4788000,60.1196000,60.2264000,-41.4750000,-12.7560000,4.4130000,101221.840000,0,0,0
10.841,0.0323000,0.0532000,9.7187000,59.7687000,60.3867000,60.1730000,-41.2360000,-12.6100000,4.6640000,101221.840000,0,0,0
10.851,0.0239000,0.0891000,9.7665000,60.1425000,60.9970000,60.0357000,-41.2050000,-12.6720000,4.7150000,101222.740000,0,0,0
10.861,0.0120000,0.1238000,9.8383000,60.6995000,62.1796000,59.8602000,-41.0020000,-12.7410000,4.2030000,101222.740000,0,0,0
