time,accel_x,accel_y,accel_z,gyro_x,gyro_y,gyro_z,mag_x,mag_y,mag_z,baro,gps_lat,gps_lon,gps_alt
1.020,0.0048000,-0.0018000,9.6541000,62.7594000,62.7136000,61.5005000,-37.1220000,-9.1590000,8.5450000,0.000000,0,0,0
1.030,0.0024000,-0.0018000,9.6529000,62.7518000,62.7441000,61.4929000,-37.0400000,-9.0130000,8.3500000,0.000000,0,0,0
1.040,0.0012000,-0.0030000,9.6529000,62.7441000,62.7594000,61.4929000,-37.2960000,-8.9110000,7.2450000,0.000000,0,0,0
1.050,0.0012000,-0.0018000,9.6529000,62.7441000,62.7518000,61.4929000,-37.3420000,-8.6920000,6.8880000,0.000000,0,0,0
1.060,0.0012000,-0.0006000,9.6529000,62.7518000,62.7289000,61.4853000,-37.2470000,-8.6170000,7.8630000,0.000000,0,0,0
1.070,0.0000000,-0.0006000,9.6529000,62.7518000,62.6907000,61.4853000,-37.4450000,-8.7950000,7.7550000,0.000000,0,0,0
1.080,0.0000000,-0.0006000,9.6529000,62.7518000,62.6526000,61.4929000,-37.4050000,-8.5320000,8.1950000,0.000000,0,0,0
1.090,0.0012000,-0.0006000,9.6517000,62.7594000,62.6221000,61.4929000,-37.4820000,-9.0260000,8.1730000,0.000000,0,0,0
1.100,0.0024000,-0.0018000,9.6505000,62.7594000,62.6144000,61.4929000,-37.7540000,-8.9610000,7.9420000,0.000000,0,0,0
1.110,0.0024000,-0.0042000,9.6517000,62.7518000,62.6221000,61.4929000,-37.2780000,-8.9220000,8.0790000,0.000000,0,0,0
1.120,0.0012000,-0.0054000,9.6517000,62.7441000,62.6373000,61.4929000,-37.1440000,-8.8880000,8.4640000,0.000000,0,0,0
1.130,0.0000000,-0.0078000,9.6529000,62.7365000,62.6602000,61.4929000,-37.3420000,-8.8420000,8.4220000,0.000000,0,0,0
1.140,0.0000000,-0.0078000,9.6529000,62.7365000,62.6678000,61.5005000,-37.1770000,-8.9770000,8.2990000,0.000000,0,0,0
1.150,0.0000000,-0.0042000,9.6517000,62.7441000,62.6755000,61.5005000,-37.1460000,-8.4220000,8.2540000,0.000000,0,0,0
1.160,0.0000000,-0.0030000,9.6529000,62.7518000,62.6755000,61.5005000,-37.0940000,-8.9170000,8.1130000,0.000000,0,0,0
1.170,0.0012000,0.0006000,9.6529000,62.7594000,62.6907000,61.5005000,-37.3410000,-8.6470000,8.3610000,0.000000,0,0,0
1.180,0.0012000,0.0030000,9.6529000,62.7594000,62.7060000,61.5005000,-37.0510000,-8.8160000,8.2990000,0.000000,0,0,0
1.190,0.0012000,0.0042000,9.6517000,62.7518000,62.7289000,61.5005000,-37.0290000,-8.6640000,7.9860000,0.000000,0,0,0
1.200,0.0000000,0.0030000,9.6505000,62.7441000,62.7518000,61.5005000,-37.3100000,-8.9750000,8.8780000,0.000000,0,0,0
1.210,0.0000000,0.0006000,9.6505000,62.7289000,62.7594000,61.5005000,-37.0600000,-8.8680000,8.2140000,0.000000,0,0,0
1.220,0.0000000,-0.0006000,9.6505000,62.7289000,62.7518000,61.5005000,-36.9560000,-8.9430000,8.5780000,0.000000,0,0,0
1.230,0.0000000,-0.0030000,9.6505000,62.7365000,62.7213000,61.4929000,-37.0480000,-8.8050000,8.4790000,0.000000,0,0,0
1.240,0.0012000,-0.0030000,9.6505000,62.7441000,62.6984000,61.5005000,-37.2260000,-9.1430000,7.9850000,0.000000,0,0,0
1.250,0.0024000,-0.0018000,9.6529000,62.7518000,62.6831000,61.5005000,-37.2200000,-9.2300000,8.7160000,0.000000,0,0,0
1.260,0.0024000,-0.0018000,9.6541000,62.7518000,62.6831000,61.5082000,-36.9820000,-8.9260000,8.7260000,0.000000,0,0,0
1.270,0.0024000,-0.0018000,9.6552000,62.7518000,62.6907000,61.5082000,-37.1710000,-8.7640000,8.5280000,0.000000,0,0,0
1.280,0.0024000,-0.0018000,9.6552000,62.7441000,62.7060000,61.5005000,-37.2160000,-8.7950000,7.4470000,0.000000,0,0,0
1.290,0.0036000,-0.0018000,9.6541000,62.7441000,62.7136000,61.5005000,-37.0680000,-8.8550000,7.4120000,0.000000,0,0,0
1.300,0.0048000,-0.0006000,9.6529000,62.7365000,62.7289000,61.4929000,-37.0140000,-9.2170000,7.1640000,0.000000,0,0,0
1.310,0.0048000,-0.0006000,9.6517000,62.7289000,62.7365000,61.4929000,-37.3570000,-9.2670000,7.6770000,0.000000,0,0,0
1.320,0.0036000,-0.0006000,9.6505000,62.7365000,62.7365000,61.4853000,-36.9090000,-9.0530000,7.7170000,0.000000,0,0,0
1.330,0.0036000,-0.0006000,9.6517000,62.7441000,62.7213000,61.4853000,-37.0230000,-8.6950000,7.6590000,0.000000,0,0,0
1.340,0.0036000,-0.0018000,9.6529000,62.7518000,62.7136000,61.4929000,-36.9360000,-8.9020000,8.4720000,0.000000,0,0,0
1.350,0.0036000,-0.0030000,9.6529000,62.7518000,62.7136000,61.5005000,-36.8940000,-8.8740000,8.6990000,0.000000,0,0,0
1.360,0.0024000,-0.0030000,9.6541000,62.7441000,62.7213000,61.5005000,-36.8140000,-9.0450000,8.2750000,0.000000,0,0,0
1.370,0.0024000,-0.0030000,9.6541000,62.7365000,62.7441000,61.5005000,-37.1160000,-8.9040000,7.9310000,0.000000,0,0,0
1.380,0.0024000,-0.0006000,9.6541000,62.7289000,62.7747000,61.4929000,-37.2430000,-9.0730000,8.3370000,0.000000,0,0,0
1.390,0.0012000,0.0006000,9.6529000,62.7289000,62.8052000,61.4853000,-37.0990000,-8.8070000,8.6320000,0.000000,0,0,0
1.400,0.0000000,0.0018000,9.6517000,62.7289000,62.8128000,61.4929000,-37.1380000,-9.4480000,8.7640000,0.000000,0,0,0
1.410,-0.0012000,0.0006000,9.6505000,62.7365000,62.7975000,61.4929000,-36.8640000,-9.0220000,8.2400000,0.000000,0,0,0
1.420,-0.0024000,-0.0006000,9.6517000,62.7441000,62.7823000,61.4929000,-37.2770000,-8.8560000,8.2710000,0.000000,0,0,0
1.430,-0.0012000,-0.0006000,9.6529000,62.7518000,62.7670000,61.4929000,-37.0900000,-9.1490000,8.1830000,0.000000,0,0,0
1.440,-0.0012000,-0.0018000,9.6541000,62.7518000,62.7441000,61.4929000,-37.0500000,-8.8870000,7.9280000,0.000000,0,0,0
1.450,-0.0012000,-0.0030000,9.6541000,62.7518000,62.7289000,61.5005000,-37.0270000,-9.2240000,8.7190000,0.000000,0,0,0
1.460,-0.0012000,-0.0030000,9.6541000,62.7518000,62.7136000,61.5082000,-36.9380000,-9.1490000,8.5420000,0.000000,0,0,0
1.470,-0.0012000,-0.0042000,9.6552000,62.7594000,62.6984000,61.5082000,-36.8530000,-8.9410000,8.6680000,0.000000,0,0,0
1.480,0.0000000,-0.0042000,9.6552000,62.7518000,62.6984000,61.5082000,-37.0740000,-8.8100000,8.4350000,0.000000,0,0,0
1.490,0.0012000,-0.0030000,9.6552000,62.7518000,62.6907000,61.5158000,-36.6140000,-8.9950000,8.3130000,0.000000,0,0,0
1.500,0.0024000,-0.0030000,9.6552000,62.7518000,62.6907000,61.5158000,-36.7670000,-8.9110000,8.6700000,0.000000,0,0,0
1.510,0.0024000,-0.0018000,9.6552000,62.7518000,62.6984000,61.5158000,-37.0000000,-8.8290000,8.7080000,0.000000,0,0,0
1.520,0.0036000,-0.0030000,9.6552000,62.7518000,62.7136000,61.5158000,-37.1270000,-8.5530000,8.1540000,0.000000,0,0,0
1.530,0.0048000,-0.0030000,9.6552000,62.7518000,62.7365000,61.5158000,-36.7990000,-8.7920000,8.3550000,0.000000,0,0,0
1.540,0.0036000,-0.0030000,9.6552000,62.7441000,62.7594000,61.5158000,-36.8200000,-8.8720000,7.9920000,0.000000,0,0,0
1.550,0.0024000,-0.0030000,9.6541000,62.7441000,62.7670000,61.5158000,-36.7700000,-8.8640000,8.5150000,0.000000,0,0,0
1.560,0.0012000,-0.0030000,9.6541000,62.7441000,62.7670000,61.5082000,-36.9260000,-8.9130000,8.1850000,0.000000,0,0,0
1.570,-0.0012000,-0.0018000,9.6552000,62.7441000,62.7594000,61.5082000,-36.9660000,-9.1110000,8.3320000,0.000000,0,0,0
1.580,-0.0012000,-0.0006000,9.6552000,62.7441000,62.7441000,61.5082000,-36.9440000,-9.0460000,8.1510000,0.000000,0,0,0
1.590,-0.0012000,0.0006000,9.6552000,62.7441000,62.7441000,61.5082000,-36.7180000,-8.9480000,7.9100000,0.000000,0,0,0
1.600,-0.0012000,0.0018000,9.6564000,62.7365000,62.7441000,61.5082000,-36.6970000,-8.6110000,8.6970000,0.000000,0,0,0
1.610,-0.0024000,0.0018000,9.6576000,62.7365000,62.7441000,61.5082000,-36.5780000,-8.8360000,7.8550000,0.000000,0,0,0
1.620,-0.0012000,0.0006000,9.6564000,62.7365000,62.7365000,61.5082000,-36.9000000,-8.8210000,8.9550000,0.000000,0,0,0
1.630,-0.0024000,-0.0006000,9.6552000,62.7365000,62.7213000,61.5082000,-36.5760000,-8.9580000,9.2110000,0.000000,0,0,0
1.640,-0.0012000,-0.0018000,9.6552000,62.7518000,62.7060000,61.5082000,-36.5040000,-8.8330000,8.8910000,0.000000,0,0,0
1.650,-0.0012000,-0.0018000,9.6541000,62.7670000,62.6755000,61.5082000,-36.6340000,-9.0000000,8.0360000,0.000000,0,0,0
1.660,0.0000000,-0.0042000,9.6541000,62.7747000,62.6602000,61.5005000,-36.9200000,-8.8920000,7.9360000,0.000000,0,0,0
1.670,0.0000000,-0.0054000,9.6541000,62.7823000,62.6526000,61.4929000,-36.7440000,-9.0890000,8.6940000,0.000000,0,0,0
1.680,0.0000000,-0.0054000,9.6552000,62.7823000,62.6602000,61.4929000,-36.5860000,-9.0460000,8.6720000,0.000000,0,0,0
1.690,0.0000000,-0.0030000,9.6552000,62.7747000,62.6831000,61.4929000,-37.0630000,-8.8290000,8.4050000,0.000000,0,0,0
1.700,0.0000000,-0.0030000,9.6552000,62.7670000,62.6984000,61.4929000,-36.9240000,-9.0610000,8.6420000,0.000000,0,0,0
1.710,-0.0012000,-0.0018000,9.6541000,62.7594000,62.7213000,61.4929000,-36.7220000,-8.6870000,8.2820000,0.000000,0,0,0
1.720,-0.0024000,-0.0018000,9.6541000,62.7518000,62.7365000,61.4929000,-36.6520000,-8.7890000,8.6120000,0.000000,0,0,0
1.730,-0.0036000,-0.0054000,9.6541000,62.7594000,62.7441000,61.5005000,-36.7240000,-8.7820000,8.4350000,0.000000,0,0,0
1.740,-0.0012000,-0.0078000,9.6541000,62.7670000,62.7441000,61.5005000,-37.0300000,-8.7520000,8.0080000,0.000000,0,0,0
1.750,-0.0012000,-0.0078000,9.6541000,62.7670000,62.7441000,61.5005000,-36.8320000,-8.9050000,8.4410000,0.000000,0,0,0
1.760,-0.0012000,-0.0078000,9.6541000,62.7670000,62.7441000,61.5005000,-36.8140000,-9.0510000,7.5140000,0.000000,0,0,0
1.770,-0.0024000,-0.0054000,9.6552000,62.7670000,62.7441000,61.5005000,-36.6410000,-9.1360000,7.8800000,0.000000,0,0,0
1.780,-0.0024000,-0.0030000,9.6552000,62.7594000,62.7441000,61.5005000,-36.3160000,-8.9600000,8.2810000,0.000000,0,0,0
1.790,-0.0024000,0.0006000,9.6552000,62.7441000,62.7441000,61.5005000,-36.6940000,-8.4790000,8.2420000,0.000000,0,0,0
1.800,-0.0036000,0.0018000,9.6564000,62.7441000,62.7441000,61.5005000,-36.5570000,-8.7930000,8.8070000,0.000000,0,0,0
1.810,-0.0048000,0.0018000,9.6576000,62.7365000,62.7289000,61.5005000,-36.4660000,-8.7520000,7.8240000,0.000000,0,0,0
1.820,-0.0048000,0.0006000,9.6564000,62.7441000,62.7136000,61.5005000,-36.6320000,-8.8540000,7.8690000,0.000000,0,0,0
1.830,-0.0036000,-0.0018000,9.6552000,62.7518000,62.7060000,61.5005000,-36.6670000,-8.8840000,7.5580000,0.000000,0,0,0
1.840,-0.0024000,-0.0054000,9.6552000,62.7594000,62.6984000,61.5082000,-36.5530000,-8.9190000,8.4410000,0.000000,0,0,0
1.850,-0.0012000,-0.0066000,9.6541000,62.7670000,62.6984000,61.5082000,-36.6650000,-8.7510000,8.0090000,0.000000,0,0,0
1.860,0.0000000,-0.0066000,9.6552000,62.7670000,62.7060000,61.5082000,-36.4110000,-9.2000000,8.0400000,0.000000,0,0,0
1.870,-0.0012000,-0.0054000,9.6541000,62.7670000,62.7060000,61.5082000,-36.6830000,-8.8620000,8.7120000,0.000000,0,0,0
1.880,-0.0024000,-0.0042000,9.6529000,62.7670000,62.7136000,61.5082000,-36.6760000,-9.0070000,8.0700000,0.000000,0,0,0
1.890,-0.0036000,-0.0018000,9.6541000,62.7670000,62.7136000,61.5082000,-36.4150000,-8.9370000,8.0600000,0.000000,0,0,0
1.900,-0.0036000,-0.0018000,9.6552000,62.7670000,62.7136000,61.5005000,-36.5450000,-8.8900000,7.8890000,0.000000,0,0,0
1.910,-0.0024000,-0.0030000,9.6552000,62.7594000,62.7136000,61.5005000,-36.7260000,-9.0430000,8.1920000,0.000000,0,0,0
1.920,-0.0024000,-0.0042000,9.6552000,62.7518000,62.7136000,61.5005000,-36.8580000,-9.0170000,8.0420000,0.000000,0,0,0
1.930,-0.0012000,-0.0054000,9.6552000,62.7441000,62.7060000,61.5005000,-36.6300000,-8.6010000,8.5410000,0.000000,0,0,0
1.940,-0.0012000,-0.0054000,9.6541000,62.7365000,62.6984000,61.5005000,-36.6720000,-9.0020000,8.0360000,0.000000,0,0,0
1.950,0.0000000,-0.0066000,9.6529000,62.7441000,62.6984000,61.4929000,-36.6580000,-8.9880000,8.1010000,0.000000,0,0,0
1.960,0.0012000,-0.0066000,9.6529000,62.7518000,62.7060000,61.5005000,-36.6840000,-8.7780000,8.5850000,0.000000,0,0,0
1.970,0.0012000,-0.0054000,9.6529000,62.7518000,62.7060000,61.5005000,-36.9160000,-9.1030000,8.6250000,0.000000,0,0,0
1.980,0.0012000,-0.0042000,9.6541000,62.7594000,62.7136000,61.5005000,-36.5200000,-9.1370000,8.2460000,0.000000,0,0,0
1.990,0.0012000,-0.0018000,9.6552000,62.7594000,62.7136000,61.5005000,-36.6120000,-8.7410000,8.1430000,0.000000,0,0,0
2.000,0.0024000,-0.0018000,9.6564000,62.7594000,62.7136000,61.5005000,-36.5890000,-9.3860000,8.6990000,0.000000,0,0,0
2.010,0.0024000,-0.0030000,9.6564000,62.7594000,62.7213000,61.4853000,-36.4850000,-9.2250000,7.9250000,0.000000,0,0,0
2.020,0.0000000,-0.0042000,9.6576000,62.7594000,62.7213000,61.4853000,-36.7950000,-9.1540000,8.2370000,0.000000,0,0,0
2.030,-0.0012000,-0.0042000,9.6576000,62.7518000,62.7213000,61.4853000,-36.3560000,-8.8430000,8.2800000,0.000000,0,0,0
2.040,-0.0012000,-0.0054000,9.6576000,62.7518000,62.7136000,61.4853000,-36.4340000,-8.8850000,8.8380000,0.000000,0,0,0
2.050,-0.0012000,-0.0054000,9.6576000,62.7518000,62.7060000,61.4929000,-36.6130000,-8.8850000,8.4880000,0.000000,0,0,0
2.060,0.0000000,-0.0054000,9.6576000,62.7594000,62.7136000,61.4929000,-36.6650000,-8.9380000,7.2890000,0.000000,0,0,0
2.070,-0.0012000,-0.0042000,9.6576000,62.7823000,62.7289000,61.4929000,-36.5820000,-8.7460000,7.5250000,0.000000,0,0,0
2.080,-0.0012000,-0.0030000,9.6576000,62.7899000,62.7441000,61.4929000,-36.5210000,-8.8790000,7.8940000,0.000000,0,0,0
2.090,-0.0024000,-0.0030000,9.6576000,62.7975000,62.7594000,61.4929000,-36.6860000,-9.0530000,7.6310000,0.000000,0,0,0
2.100,-0.0024000,-0.0042000,9.6588000,62.8052000,62.7670000,61.4929000,-36.5120000,-9.0070000,8.6420000,0.000000,0,0,0
2.110,-0.0024000,-0.0042000,9.6588000,62.7975000,62.7670000,61.4929000,-36.7790000,-8.9880000,7.9230000,0.000000,0,0,0
2.120,-0.0012000,-0.0054000,9.6588000,62.7747000,62.7747000,61.5005000,-36.5900000,-8.9770000,7.9290000,0.000000,0,0,0
2.130,-0.0012000,-0.0054000,9.6576000,62.7365000,62.7899000,61.5082000,-36.3660000,-8.8820000,7.2070000,0.000000,0,0,0
2.140,-0.0024000,-0.0042000,9.6576000,62.7060000,62.7899000,61.5158000,-36.4470000,-8.8850000,7.4560000,0.000000,0,0,0
2.150,-0.0036000,-0.0018000,9.6576000,62.6831000,62.7823000,61.5158000,-36.3560000,-8.8290000,8.0290000,0.000000,0,0,0
2.160,-0.0036000,-0.0006000,9.6564000,62.6755000,62.7747000,61.5158000,-36.5660000,-9.0610000,8.2710000,0.000000,0,0,0
2.170,-0.0036000,0.0006000,9.6564000,62.6831000,62.7594000,61.5158000,-36.3620000,-8.8490000,8.1470000,0.000000,0,0,0
2.180,-0.0036000,0.0006000,9.6564000,62.6984000,62.7365000,61.5082000,-36.5230000,-8.9100000,8.2880000,0.000000,0,0,0
2.190,-0.0024000,-0.0006000,9.6552000,62.7213000,62.7136000,61.5082000,-36.5700000,-8.8210000,8.5960000,0.000000,0,0,0
2.200,-0.0024000,-0.0018000,9.6552000,62.7365000,62.6831000,61.5005000,-36.5550000,-8.9080000,8.7450000,0.000000,0,0,0
2.210,-0.0024000,-0.0030000,9.6552000,62.7441000,62.6602000,61.5082000,-36.4500000,-9.0450000,8.3940000,0.000000,0,0,0
2.220,-0.0024000,-0.0042000,9.6564000,62.7518000,62.6450000,61.5082000,-36.7340000,-9.0150000,8.2760000,0.000000,0,0,0
2.230,-0.0012000,-0.0054000,9.6552000,62.7594000,62.6373000,61.5082000,-36.6190000,-8.8050000,8.2750000,0.000000,0,0,0
2.240,-0.0012000,-0.0042000,9.6541000,62.7670000,62.6373000,61.5005000,-36.5490000,-9.0150000,8.5810000,0.000000,0,0,0
2.250,0.0000000,-0.0042000,9.6541000,62.7670000,62.6450000,61.4929000,-36.1990000,-8.9150000,8.6520000,0.000000,0,0,0
2.260,0.0000000,-0.0030000,9.6541000,62.7670000,62.6907000,61.4929000,-36.8000000,-9.1160000,8.0740000,0.000000,0,0,0
2.270,0.0000000,-0.0018000,9.6529000,62.7670000,62.6984000,61.4853000,-36.6690000,-9.2510000,8.4350000,0.000000,0,0,0
2.280,0.0000000,-0.0006000,9.6529000,62.7594000,62.7060000,61.4853000,-36.7260000,-9.0630000,7.9830000,0.000000,0,0,0
2.290,0.0000000,-0.0006000,9.6552000,62.7441000,62.7136000,61.4929000,-36.5400000,-8.9420000,7.6980000,0.000000,0,0,0
2.300,0.0000000,-0.0006000,9.6564000,62.7441000,62.7136000,61.4929000,-36.2550000,-9.1080000,7.2120000,0.000000,0,0,0
2.310,-0.0024000,-0.0006000,9.6576000,62.7518000,62.6984000,61.4929000,-36.4770000,-8.7560000,8.0600000,0.000000,0,0,0
2.320,-0.0036000,-0.0018000,9.6576000,62.7594000,62.6755000,61.4929000,-36.3350000,-8.5700000,8.0840000,0.000000,0,0,0
2.330,-0.0036000,-0.0030000,9.6576000,62.7670000,62.6602000,61.5005000,-36.3710000,-8.7360000,7.9270000,0.000000,0,0,0
2.340,-0.0024000,-0.0030000,9.6564000,62.7823000,62.6221000,61.5005000,-36.4830000,-8.8840000,7.4800000,0.000000,0,0,0
2.350,-0.0036000,-0.0006000,9.6552000,62.7975000,62.5839000,61.5005000,-36.4150000,-8.7880000,7.7090000,0.000000,0,0,0
2.360,-0.0036000,0.0006000,9.6541000,62.8052000,62.5610000,61.4929000,-36.6740000,-8.9620000,8.0480000,0.000000,0,0,0
2.370,-0.0024000,0.0018000,9.6541000,62.8128000,62.5534000,61.4929000,-36.5450000,-9.0330000,7.9340000,0.000000,0,0,0
2.380,-0.0024000,0.0006000,9.6541000,62.8128000,62.5687000,61.4929000,-36.8450000,-8.8670000,8.3390000,0.000000,0,0,0
2.390,-0.0024000,-0.0006000,9.6541000,62.8204000,62.5687000,61.4929000,-36.5230000,-9.1610000,7.7270000,0.000000,0,0,0
2.400,-0.0036000,-0.0030000,9.6529000,62.8204000,62.5534000,61.4929000,-36.5650000,-8.7870000,7.7610000,0.000000,0,0,0
2.410,-0.0036000,-0.0042000,9.6529000,62.8357000,62.5153000,61.5005000,-36.5160000,-8.8890000,8.3460000,0.000000,0,0,0
2.420,-0.0012000,-0.0042000,9.6541000,62.8433000,62.4771000,61.5005000,-36.6070000,-9.0020000,8.5410000,0.000000,0,0,0
2.430,0.0000000,-0.0018000,9.6552000,62.8662000,62.4466000,61.5005000,-36.1820000,-9.0130000,7.9140000,0.000000,0,0,0
2.440,0.0012000,0.0018000,9.6552000,62.8815000,62.4619000,61.4929000,-36.4800000,-9.0970000,7.9760000,0.000000,0,0,0
2.450,0.0012000,0.0054000,9.6564000,62.8738000,62.4924000,61.4929000,-36.4650000,-9.1610000,7.9910000,0.000000,0,0,0
2.460,0.0012000,0.0054000,9.6588000,62.8738000,62.5534000,61.4929000,-36.5400000,-8.8700000,8.5650000,0.000000,0,0,0
2.470,0.0012000,0.0018000,9.6588000,62.8662000,62.6297000,61.4929000,-36.4980000,-9.0370000,8.2950000,0.000000,0,0,0
2.480,0.0012000,-0.0006000,9.6576000,62.8662000,62.6831000,61.5005000,-36.3510000,-9.0110000,8.6860000,0.000000,0,0,0
2.490,0.0012000,-0.0042000,9.6564000,62.8662000,62.7289000,61.5005000,-36.6240000,-8.9970000,8.6960000,0.000000,0,0,0
2.500,0.0000000,-0.0078000,9.6552000,62.8738000,62.7670000,61.5005000,-36.4820000,-8.9340000,8.8490000,0.000000,0,0,0
2.510,-0.0012000,-0.0090000,9.6541000,62.8967000,62.7747000,61.5005000,-36.4520000,-8.9260000,8.0390000,0.000000,0,0,0
2.520,-0.0012000,-0.0078000,9.6529000,62.9120000,62.7670000,61.5005000,-36.6400000,-8.8920000,8.0000000,0.000000,0,0,0
2.530,0.0000000,-0.0042000,9.6505000,62.9425000,62.7518000,61.5005000,-36.4510000,-8.8090000,8.2260000,0.000000,0,0,0
2.540,0.0012000,-0.0006000,9.6505000,62.9578000,62.7289000,61.5005000,-36.8910000,-8.8990000,8.7640000,0.000000,0,0,0
2.550,0.0000000,0.0018000,9.6541000,62.9654000,62.7136000,61.4929000,-36.3620000,-8.5030000,9.1860000,0.000000,0,0,0
2.560,0.0000000,0.0054000,9.6552000,62.9807000,62.7136000,61.4929000,-36.5580000,-8.8520000,8.9350000,0.000000,0,0,0
2.570,0.0000000,0.0066000,9.6529000,62.9959000,62.6984000,61.4929000,-36.3650000,-9.0100000,8.4250000,0.000000,0,0,0
2.580,0.0000000,0.0066000,9.6529000,63.0112000,62.6907000,61.4929000,-36.5100000,-9.0190000,8.1580000,0.000000,0,0,0
2.590,0.0024000,0.0042000,9.6552000,63.0264000,62.6984000,61.4929000,-36.5180000,-8.9410000,8.2060000,0.000000,0,0,0
2.600,0.0036000,0.0018000,9.6564000,63.0417000,62.7060000,61.4853000,-36.4560000,-9.3600000,8.3310000,0.000000,0,0,0
2.610,0.0036000,0.0006000,9.6564000,63.0493000,62.7136000,61.4929000,-36.4740000,-9.5430000,8.2750000,0.000000,0,0,0
2.620,0.0024000,-0.0006000,9.6576000,63.0341000,62.7136000,61.4853000,-36.7730000,-9.1470000,8.5050000,0.000000,0,0,0
2.630,0.0012000,-0.0006000,9.6588000,63.0035000,62.7213000,61.4777000,-36.5410000,-8.9710000,8.0850000,0.000000,0,0,0
2.640,0.0000000,0.0018000,9.6588000,62.9730000,62.6984000,61.4777000,-36.3700000,-9.1800000,8.0730000,0.000000,0,0,0
2.650,0.0000000,0.0054000,9.6576000,62.9501000,62.6755000,61.4777000,-36.3900000,-9.2440000,7.9650000,0.000000,0,0,0
2.660,0.0000000,0.0078000,9.6552000,62.9425000,62.6602000,61.4777000,-36.4060000,-9.4110000,7.7270000,0.000000,0,0,0
2.670,0.0000000,0.0090000,9.6552000,62.9578000,62.6450000,61.4777000,-36.4660000,-8.8600000,8.1490000,0.000000,0,0,0
2.680,0.0012000,0.0090000,9.6564000,62.9807000,62.6526000,61.4853000,-36.6810000,-9.1410000,8.2200000,0.000000,0,0,0
2.690,0.0024000,0.0078000,9.6576000,62.9959000,62.6602000,61.4853000,-36.6920000,-8.9220000,7.5550000,0.000000,0,0,0
2.700,0.0024000,0.0054000,9.6588000,63.0035000,62.6831000,61.4929000,-36.6160000,-9.0390000,7.9470000,0.000000,0,0,0
2.710,0.0024000,0.0018000,9.6600000,62.9959000,62.7136000,61.4929000,-36.6590000,-9.1990000,8.3200000,0.000000,0,0,0
2.720,0.0024000,0.0018000,9.6612000,62.9654000,62.7289000,61.5005000,-36.6600000,-9.1120000,7.8170000,0.000000,0,0,0
2.730,0.0000000,0.0030000,9.6612000,62.9272000,62.7060000,61.4929000,-36.5900000,-9.1430000,7.9550000,0.000000,0,0,0
2.740,0.0000000,0.0054000,9.6588000,62.9044000,62.6602000,61.4929000,-36.5980000,-8.9490000,8.0500000,0.000000,0,0,0
2.750,0.0000000,0.0102000,9.6564000,62.8967000,62.6144000,61.4929000,-36.6810000,-8.9460000,7.8460000,0.000000,0,0,0
2.760,0.0000000,0.0126000,9.6529000,62.9044000,62.5687000,61.4929000,-36.6990000,-8.8650000,7.8600000,0.000000,0,0,0
2.770,0.0000000,0.0138000,9.6517000,62.9120000,62.5381000,61.4929000,-36.4880000,-8.8980000,7.7910000,0.000000,0,0,0
2.780,0.0036000,0.0126000,9.6552000,62.9349000,62.6755000,61.4929000,-36.7470000,-9.1070000,8.1250000,0.000000,0,0,0
2.790,0.0012000,0.0102000,9.6552000,62.9501000,62.9730000,61.5082000,-36.7900000,-9.2280000,8.2620000,0.000000,0,0,0
2.800,0.0012000,0.0090000,9.6576000,62.9654000,63.2706000,61.5234000,-36.5230000,-9.0620000,8.1630000,0.000000,0,0,0
2.810,0.0012000,0.0066000,9.6612000,62.9807000,63.6292000,61.5234000,-36.2500000,-9.3900000,7.9340000,0.000000,0,0,0
2.820,0.0012000,0.0078000,9.6660000,63.0188000,64.1022000,61.5311000,-36.4390000,-8.9410000,8.3460000,0.000000,0,0,0
2.830,-0.0012000,0.0102000,9.6684000,63.0646000,64.5676000,61.5540000,-36.5490000,-9.1740000,8.7680000,0.000000,0,0,0
2.840,-0.0036000,0.0126000,9.6684000,63.1180000,65.0177000,61.5616000,-36.7860000,-9.0520000,7.9650000,0.000000,0,0,0
2.850,-0.0084000,0.0150000,9.6660000,63.1714000,65.4144000,61.5768000,-36.8640000,-9.0020000,7.8870000,0.000000,0,0,0
2.860,-0.0132000,0.0161000,9.6636000,63.2095000,65.8264000,61.5921000,-36.8870000,-8.9530000,8.0270000,0.000000,0,0,0
2.870,-0.0191000,0.0161000,9.6624000,63.2477000,66.2918000,61.5997000,-36.6850000,-9.0870000,7.8150000,0.000000,0,0,0
2.880,-0.0227000,0.0173000,9.6672000,63.2782000,66.9174000,61.6150000,-36.8160000,-9.4060000,8.2160000,0.000000,0,0,0
2.890,-0.0227000,0.0161000,9.6768000,63.3392000,67.9855000,61.6302000,-36.7080000,-9.1110000,8.5780000,0.000000,0,0,0
2.900,-0.0299000,0.0150000,9.6840000,63.4613000,69.6564000,61.6531000,-36.5840000,-9.2360000,8.7410000,0.000000,0,0,0
2.910,-0.0479000,0.0150000,9.6792000,63.5834000,71.1899000,61.6760000,-36.7750000,-9.2490000,8.7090000,0.000000,0,0,0
2.920,-0.0694000,0.0150000,9.6720000,63.6902000,72.2504000,61.7065000,-36.7620000,-9.0710000,8.6040000,0.000000,0,0,0
2.930,-0.0957000,0.0185000,9.6588000,63.7283000,72.6166000,61.7142000,-36.8380000,-9.3860000,8.7250000,0.000000,0,0,0
2.940,-0.1017000,0.0209000,9.6720000,63.7436000,72.9599000,61.7523000,-36.7060000,-9.3960000,8.7580000,0.000000,0,0,0
2.950,-0.1160000,0.0257000,9.6768000,63.7741000,73.9212000,61.7828000,-36.3340000,-9.2370000,8.7360000,0.000000,0,0,0
2.960,-0.1232000,0.0293000,9.7103000,64.0182000,77.8275000,61.8134000,-36.2260000,-9.4740000,9.2910000,0.000000,0,0,0
2.970,-0.2010000,0.0353000,9.6493000,64.1098000,78.8269000,61.8057000,-36.1260000,-9.5040000,8.2620000,0.000000,0,0,0
2.980,-0.2512000,0.0389000,9.6206000,63.9725000,76.7746000,61.7752000,-36.0710000,-9.2030000,9.1520000,0.000000,0,0,0
2.990,-0.2787000,0.0389000,9.6122000,63.7360000,73.4558000,61.7218000,-36.1000000,-9.1960000,8.8940000,0.000000,0,0,0
3.000,-0.2907000,0.0389000,9.6194000,63.4918000,69.9844000,61.6608000,-36.3470000,-9.2660000,8.8260000,0.000000,0,0,0
3.010,-0.2931000,0.0389000,9.6313000,63.3011000,67.0624000,61.6150000,-35.8830000,-9.1520000,9.0040000,0.000000,0,0,0
3.020,-0.2895000,0.0413000,9.6421000,63.1790000,64.8651000,61.5845000,-36.2040000,-9.1290000,8.9350000,0.000000,0,0,0
3.030,-0.2847000,0.0437000,9.6505000,63.0798000,63.3850000,61.5463000,-36.3850000,-8.9660000,8.9540000,0.000000,0,0,0
3.040,-0.2787000,0.0461000,9.6564000,62.9807000,62.5000000,61.5234000,-36.3570000,-9.0090000,8.4230000,0.000000,0,0,0
3.050,-0.2728000,0.0473000,9.6624000,62.8815000,62.0575000,61.5082000,-36.0850000,-9.1320000,8.9340000,0.000000,0,0,0
3.060,-0.2644000,0.0425000,9.6756000,62.8281000,62.1490000,61.5082000,-36.2140000,-9.1020000,8.6850000,0.000000,0,0,0
3.070,-0.2632000,0.0413000,9.6756000,62.8357000,62.3932000,61.5082000,-36.3040000,-9.1080000,8.7230000,0.000000,0,0,0
3.080,-0.2632000,0.0389000,9.6732000,62.8891000,62.5229000,61.5158000,-36.4380000,-9.2200000,9.8310000,0.000000,0,0,0
3.090,-0.2644000,0.0389000,9.6708000,62.9654000,62.5534000,61.5082000,-36.2170000,-9.2430000,8.5290000,0.000000,0,0,0
3.100,-0.2668000,0.0401000,9.6684000,63.0264000,62.4771000,61.5082000,-36.2430000,-8.8290000,8.2150000,0.000000,0,0,0
3.110,-0.2668000,0.0437000,9.6672000,63.0569000,62.3856000,61.5082000,-36.0580000,-8.8090000,8.7980000,0.000000,0,0,0
3.120,-0.2656000,0.0473000,9.6672000,63.0569000,62.4390000,61.5158000,-36.0530000,-8.4740000,8.5730000,0.000000,0,0,0
3.130,-0.2644000,0.0496000,9.6684000,63.0417000,62.5763000,61.5234000,-36.0760000,-8.7700000,8.7360000,0.000000,0,0,0
3.140,-0.2632000,0.0484000,9.6720000,63.0112000,62.7747000,61.5311000,-36.2510000,-9.2190000,8.7940000,0.000000,0,0,0
3.150,-0.2632000,0.0473000,9.6732000,63.0112000,62.9959000,61.5463000,-36.3170000,-9.2850000,8.6210000,0.000000,0,0,0
3.160,-0.2632000,0.0461000,9.6732000,63.0264000,63.2324000,61.5616000,-36.3040000,-9.0640000,8.6790000,0.000000,0,0,0
3.170,-0.2656000,0.0461000,9.6720000,63.0493000,63.4308000,61.5692000,-36.0790000,-9.1320000,8.7460000,0.000000,0,0,0
3.180,-0.2692000,0.0461000,9.6696000,63.0569000,63.5376000,61.5692000,-36.3950000,-8.7810000,9.6480000,0.000000,0,0,0
3.190,-0.2740000,0.0473000,9.6684000,63.0646000,63.4842000,61.5692000,-36.2290000,-8.7000000,9.3530000,0.000000,0,0,0
3.200,-0.2763000,0.0484000,9.6660000,63.0569000,63.3392000,61.5616000,-36.1600000,-8.7020000,9.2370000,0.000000,0,0,0
3.210,-0.2775000,0.0496000,9.6648000,63.0341000,63.1409000,61.5540000,-36.3280000,-8.9950000,8.5440000,0.000000,0,0,0
3.220,-0.2775000,0.0508000,9.6636000,63.0112000,62.9501000,61.5387000,-36.5070000,-8.8360000,8.7030000,0.000000,0,0,0
3.230,-0.2763000,0.0520000,9.6660000,62.9730000,62.8204000,61.5311000,-36.2560000,-8.7210000,8.3480000,0.000000,0,0,0
3.240,-0.2740000,0.0520000,9.6660000,62.9349000,62.7594000,61.5234000,-36.2000000,-8.9950000,8.9210000,0.000000,0,0,0
3.250,-0.2740000,0.0508000,9.6660000,62.9044000,62.7594000,61.5234000,-36.3670000,-8.8750000,8.6900000,0.000000,0,0,0
3.260,-0.2728000,0.0496000,9.6672000,62.8738000,62.7823000,61.5311000,-36.5810000,-8.6520000,8.7750000,0.000000,0,0,0
3.270,-0.2728000,0.0496000,9.6684000,62.8510000,62.7823000,61.5234000,-36.2260000,-8.7190000,8.4700000,0.000000,0,0,0
3.280,-0.2740000,0.0508000,9.6696000,62.8281000,62.7213000,61.5158000,-36.0530000,-8.8980000,8.6200000,0.000000,0,0,0
3.290,-0.2740000,0.0520000,9.6684000,62.8052000,62.6221000,61.5158000,-36.1470000,-8.6980000,8.5040000,0.000000,0,0,0
3.300,-0.2740000,0.0532000,9.6696000,62.7899000,62.5381000,61.5082000,-36.2080000,-8.7010000,8.0410000,0.000000,0,0,0
3.310,-0.2740000,0.0532000,9.6708000,62.7823000,62.4924000,61.5005000,-36.3540000,-8.4540000,7.9760000,0.000000,0,0,0
3.320,-0.2740000,0.0532000,9.6720000,62.7823000,62.4924000,61.5005000,-36.2590000,-8.6590000,8.8620000,0.000000,0,0,0
3.330,-0.2740000,0.0508000,9.6720000,62.7899000,62.5305000,61.5082000,-36.2990000,-9.0590000,9.1730000,0.000000,0,0,0
3.340,-0.2728000,0.0496000,9.6696000,62.7899000,62.5839000,61.5158000,-36.3080000,-9.1270000,8.8420000,0.000000,0,0,0
3.350,-0.2728000,0.0484000,9.6684000,62.7823000,62.5992000,61.5158000,-36.3190000,-8.8410000,8.8880000,0.000000,0,0,0
3.360,-0.2740000,0.0484000,9.6684000,62.7670000,62.5839000,61.5234000,-36.0010000,-8.9820000,9.1550000,0.000000,0,0,0
3.370,-0.2728000,0.0508000,9.6684000,62.7518000,62.5610000,61.5158000,-36.1940000,-8.8740000,9.3200000,0.000000,0,0,0
3.380,-0.2704000,0.0520000,9.6684000,62.7441000,62.5763000,61.5158000,-36.0550000,-9.1070000,9.2740000,0.000000,0,0,0
3.390,-0.2692000,0.0544000,9.6672000,62.7441000,62.6144000,61.5158000,-36.1810000,-8.9610000,9.1520000,0.000000,0,0,0
3.400,-0.2692000,0.0556000,9.6660000,62.7365000,62.6755000,61.5234000,-36.2560000,-8.8720000,8.7690000,0.000000,0,0,0
3.410,-0.2692000,0.0556000,9.6660000,62.7289000,62.7289000,61.5234000,-36.1320000,-8.7110000,8.8630000,0.000000,0,0,0
3.420,-0.2716000,0.0556000,9.6672000,62.7289000,62.7823000,61.5234000,-36.3240000,-8.7960000,8.7130000,0.000000,0,0,0
3.430,-0.2728000,0.0556000,9.6672000,62.7213000,62.7899000,61.5234000,-36.1660000,-8.8740000,8.6770000,0.000000,0,0,0
3.440,-0.2740000,0.0568000,9.6684000,62.7213000,62.7823000,61.5234000,-36.3380000,-9.1190000,8.7270000,0.000000,0,0,0
3.450,-0.2740000,0.0568000,9.6684000,62.7213000,62.7670000,61.5311000,-36.1280000,-9.2030000,9.3550000,0.000000,0,0,0
3.460,-0.2751000,0.0568000,9.6684000,62.7136000,62.7441000,61.5311000,-36.0650000,-9.1110000,8.9780000,0.000000,0,0,0
3.470,-0.2763000,0.0580000,9.6684000,62.7060000,62.7060000,61.5234000,-36.3850000,-9.0300000,9.3290000,0.000000,0,0,0
3.480,-0.2751000,0.0592000,9.6720000,62.7060000,62.6678000,61.5234000,-36.2820000,-9.0850000,8.6840000,0.000000,0,0,0
3.490,-0.2751000,0.0592000,9.6720000,62.7136000,62.6450000,61.5234000,-36.5440000,-9.0750000,8.1780000,0.000000,0,0,0
3.500,-0.2763000,0.0592000,9.6696000,62.7213000,62.6297000,61.5234000,-36.3940000,-8.8600000,8.6920000,0.000000,0,0,0
3.510,-0.2763000,0.0580000,9.6696000,62.7289000,62.6297000,61.5234000,-36.4140000,-9.0810000,8.5290000,0.000000,0,0,0
3.520,-0.2763000,0.0556000,9.6696000,62.7289000,62.6068000,61.5234000,-36.4490000,-8.7640000,8.9110000,0.000000,0,0,0
3.530,-0.2740000,0.0544000,9.6684000,62.7289000,62.5458000,61.5234000,-36.7110000,-8.8330000,8.2350000,0.000000,0,0,0
3.540,-0.2728000,0.0520000,9.6672000,62.7365000,62.4847000,61.5158000,-36.4450000,-8.8890000,8.5910000,0.000000,0,0,0
3.550,-0.2728000,0.0532000,9.6672000,62.7289000,62.4390000,61.5082000,-36.4050000,-9.0580000,7.7630000,0.000000,0,0,0
3.560,-0.2716000,0.0532000,9.6684000,62.7136000,62.4161000,61.4929000,-36.3050000,-8.8710000,8.5660000,0.000000,0,0,0
3.570,-0.2704000,0.0544000,9.6696000,62.7136000,62.4161000,61.4929000,-36.3630000,-8.7860000,8.3500000,0.000000,0,0,0
3.580,-0.2704000,0.0544000,9.6684000,62.7136000,62.4466000,61.5005000,-36.1220000,-9.3120000,8.4890000,0.000000,0,0,0
3.590,-0.2692000,0.0532000,9.6684000,62.7289000,62.5458000,61.5005000,-36.2330000,-9.0210000,8.8150000,0.000000,0,0,0
3.600,-0.2692000,0.0520000,9.6696000,62.7365000,62.6144000,61.5082000,-36.2940000,-8.8100000,8.9150000,0.000000,0,0,0
3.610,-0.2692000,0.0508000,9.6684000,62.7518000,62.6602000,61.5158000,-35.9280000,-8.7230000,9.5460000,0.000000,0,0,0
3.620,-0.2704000,0.0520000,9.6684000,62.7594000,62.6831000,61.5234000,-36.0230000,-8.4510000,9.2460000,0.000000,0,0,0
3.630,-0.2716000,0.0532000,9.6684000,62.7518000,62.6907000,61.5234000,-36.1940000,-8.7740000,8.6300000,0.000000,0,0,0
3.640,-0.2728000,0.0568000,9.6708000,62.7518000,62.6984000,61.5311000,-36.2610000,-9.0630000,9.1450000,0.000000,0,0,0
3.650,-0.2728000,0.0580000,9.6708000,62.7441000,62.6907000,61.5311000,-36.3280000,-8.8220000,9.2810000,0.000000,0,0,0
3.660,-0.2728000,0.0592000,9.6684000,62.7289000,62.6831000,61.5234000,-36.4040000,-8.9990000,9.2430000,0.000000,0,0,0
3.670,-0.2728000,0.0580000,9.6672000,62.7289000,62.6602000,61.5158000,-36.3080000,-9.1610000,9.2080000,0.000000,0,0,0
3.680,-0.2716000,0.0556000,9.6696000,62.7213000,62.6526000,61.5158000,-36.1040000,-8.6910000,9.3300000,0.000000,0,0,0
3.690,-0.2704000,0.0532000,9.6732000,62.7289000,62.6831000,61.5234000,-36.0780000,-8.9660000,8.9350000,0.000000,0,0,0
3.700,-0.2704000,0.0520000,9.6744000,62.7289000,62.7365000,61.5234000,-36.3200000,-8.7710000,9.6040000,0.000000,0,0,0
3.710,-0.2692000,0.0496000,9.6732000,62.7365000,62.7975000,61.5311000,-36.1910000,-8.7420000,10.1330000,0.000000,0,0,0
3.720,-0.2692000,0.0484000,9.6720000,62.7365000,62.8357000,61.5311000,-36.4180000,-9.0710000,9.5310000,0.000000,0,0,0
3.730,-0.2704000,0.0496000,9.6708000,62.7289000,62.8586000,61.5311000,-36.0870000,-8.9470000,9.5350000,0.000000,0,0,0
3.740,-0.2716000,0.0532000,9.6696000,62.7213000,62.8433000,61.5311000,-36.6650000,-9.0890000,9.5020000,0.000000,0,0,0
3.750,-0.2716000,0.0556000,9.6684000,62.7136000,62.8128000,61.5234000,-36.3880000,-8.7390000,10.0240000,0.000000,0,0,0
3.760,-0.2704000,0.0568000,9.6672000,62.7213000,62.7823000,61.5234000,-36.1550000,-8.9580000,9.3860000,0.000000,0,0,0
3.770,-0.2716000,0.0568000,9.6684000,62.7213000,62.7594000,61.5234000,-36.1930000,-8.9520000,9.1130000,0.000000,0,0,0
3.780,-0.2716000,0.0556000,9.6684000,62.7213000,62.7289000,61.5234000,-36.6930000,-9.2830000,9.1760000,0.000000,0,0,0
3.790,-0.2728000,0.0520000,9.6684000,62.7213000,62.7060000,61.5234000,-36.5280000,-8.9440000,9.9440000,0.000000,0,0,0
3.800,-0.2740000,0.0484000,9.6684000,62.7289000,62.6678000,61.5158000,-36.4470000,-8.9560000,9.0230000,0.000000,0,0,0
3.810,-0.2740000,0.0473000,9.6684000,62.7289000,62.6297000,61.5158000,-36.4490000,-8.9720000,9.2520000,0.000000,0,0,0
3.820,-0.2728000,0.0484000,9.6696000,62.7289000,62.5916000,61.5158000,-36.5300000,-9.2400000,9.1140000,0.000000,0,0,0
3.830,-0.2728000,0.0496000,9.6684000,62.7289000,62.5610000,61.5234000,-36.1970000,-9.2880000,8.8760000,0.000000,0,0,0
3.840,-0.2716000,0.0532000,9.6696000,62.7289000,62.5687000,61.5234000,-36.4970000,-8.6900000,9.0800000,0.000000,0,0,0
3.850,-0.2716000,0.0556000,9.6708000,62.7213000,62.5992000,61.5311000,-35.9520000,-8.8320000,8.7460000,0.000000,0,0,0
3.860,-0.2704000,0.0568000,9.6708000,62.7213000,62.6678000,61.5234000,-36.4550000,-9.2810000,8.7360000,0.000000,0,0,0
3.870,-0.2692000,0.0568000,9.6696000,62.7289000,62.7213000,61.5311000,-36.1960000,-8.9050000,8.2340000,0.000000,0,0,0
3.880,-0.2692000,0.0568000,9.6672000,62.7289000,62.7365000,61.5311000,-36.4160000,-9.1400000,9.0160000,0.000000,0,0,0
3.890,-0.2704000,0.0556000,9.6660000,62.7365000,62.7213000,61.5234000,-36.2310000,-9.1200000,9.2240000,0.000000,0,0,0
3.900,-0.2728000,0.0556000,9.6648000,62.7365000,62.6526000,61.5158000,-36.4900000,-9.1860000,8.9100000,0.000000,0,0,0
3.910,-0.2740000,0.0556000,9.6648000,62.7365000,62.5610000,61.5158000,-36.1270000,-9.1230000,9.2630000,0.000000,0,0,0
3.920,-0.2740000,0.0568000,9.6660000,62.7289000,62.4924000,61.5158000,-36.0970000,-9.0710000,8.9730000,0.000000,0,0,0
3.930,-0.2740000,0.0568000,9.6672000,62.7289000,62.4695000,61.5082000,-36.3330000,-9.0920000,9.2660000,0.000000,0,0,0
3.940,-0.2728000,0.0556000,9.6696000,62.7289000,62.4924000,61.5082000,-36.4480000,-9.1520000,9.3810000,0.000000,0,0,0
3.950,-0.2716000,0.0544000,9.6708000,62.7289000,62.5381000,61.5082000,-36.2960000,-9.0130000,8.5080000,0.000000,0,0,0
3.960,-0.2716000,0.0520000,9.6696000,62.7365000,62.5839000,61.5158000,-36.4720000,-9.0310000,9.2140000,0.000000,0,0,0
3.970,-0.2728000,0.0508000,9.6696000,62.7365000,62.6144000,61.5234000,-36.1000000,-8.9310000,9.4950000,0.000000,0,0,0
3.980,-0.2716000,0.0520000,9.6684000,62.7365000,62.6221000,61.5311000,-36.1580000,-8.8600000,8.6550000,0.000000,0,0,0
3.990,-0.2716000,0.0544000,9.6684000,62.7289000,62.6068000,61.5311000,-36.3120000,-8.7060000,9.1240000,0.000000,0,0,0
4.000,-0.2704000,0.0568000,9.6684000,62.7213000,62.5610000,61.5311000,-36.3320000,-9.1930000,9.7570000,0.000000,0,0,0
4.010,-0.2692000,0.0580000,9.6696000,62.7136000,62.5076000,61.5234000,-36.4160000,-8.5880000,8.6930000,0.000000,0,0,0
4.020,-0.2680000,0.0580000,9.6708000,62.7060000,62.4619000,61.5234000,-36.4650000,-8.8600000,8.9530000,0.000000,0,0,0
4.030,-0.2680000,0.0592000,9.6708000,62.7136000,62.4237000,61.5158000,-36.5710000,-8.9810000,8.9110000,0.000000,0,0,0
4.040,-0.2668000,0.0604000,9.6696000,62.7289000,62.4161000,61.5082000,-36.5580000,-8.7730000,8.5600000,0.000000,0,0,0
4.050,-0.2656000,0.0592000,9.6684000,62.7289000,62.4542000,61.5158000,-36.2780000,-8.9950000,8.8620000,0.000000,0,0,0
4.060,-0.2656000,0.0556000,9.6672000,62.7365000,62.5153000,61.5158000,-36.5700000,-8.6050000,8.4590000,0.000000,0,0,0
4.070,-0.2656000,0.0496000,9.6684000,62.7518000,62.6144000,61.5616000,-36.4570000,-8.5710000,8.2660000,0.000000,0,0,0
4.080,-0.2680000,0.0473000,9.6672000,62.7823000,62.7441000,61.6608000,-36.7780000,-8.5550000,8.4780000,0.000000,0,0,0
4.090,-0.2692000,0.0484000,9.6660000,62.7975000,62.8586000,61.7371000,-36.4880000,-8.4720000,8.7730000,0.000000,0,0,0
4.100,-0.2704000,0.0496000,9.6648000,62.8052000,62.9425000,61.8134000,-36.5330000,-8.8200000,8.6990000,0.000000,0,0,0
4.110,-0.2704000,0.0520000,9.6648000,62.7975000,62.9883000,61.8973000,-36.3980000,-8.8790000,8.6990000,0.000000,0,0,0
4.120,-0.2728000,0.0544000,9.6624000,62.7823000,62.9425000,61.9278000,-36.0640000,-8.9160000,8.4550000,0.000000,0,0,0
4.130,-0.2728000,0.0568000,9.6612000,62.7670000,62.8510000,61.8973000,-36.2400000,-8.6980000,8.8780000,0.000000,0,0,0
4.140,-0.2716000,0.0580000,9.6624000,62.7518000,62.7365000,61.8439000,-36.6920000,-8.9720000,9.6790000,0.000000,0,0,0
4.150,-0.2704000,0.0592000,9.6648000,62.7213000,62.6450000,61.7599000,-36.4940000,-9.0020000,9.1970000,0.000000,0,0,0
4.160,-0.2704000,0.0580000,9.6672000,62.6984000,62.5916000,61.6608000,-36.3640000,-8.9870000,8.8320000,0.000000,0,0,0
4.170,-0.2692000,0.0580000,9.6672000,62.6907000,62.5839000,61.5311000,-36.5880000,-8.6160000,8.9060000,0.000000,0,0,0
4.180,-0.2692000,0.0580000,9.6684000,62.7136000,62.5992000,61.3327000,-36.4620000,-8.5400000,8.9590000,0.000000,0,0,0
4.190,-0.2680000,0.0592000,9.6708000,62.7518000,62.6297000,61.1038000,-36.2390000,-8.7750000,9.0730000,0.000000,0,0,0
4.200,-0.2668000,0.0592000,9.6792000,62.8052000,62.8815000,60.8978000,-36.4370000,-8.6790000,9.5460000,0.000000,0,0,0
4.210,-0.2716000,0.0604000,9.6732000,62.8510000,63.2324000,60.6995000,-36.4060000,-8.8360000,9.2430000,0.000000,0,0,0
4.220,-0.2799000,0.0520000,9.6564000,62.8510000,62.9883000,60.7986000,-36.3520000,-8.9550000,8.5680000,0.000000,0,0,0
4.230,-0.2775000,0.0520000,9.6600000,62.7823000,62.4847000,61.1877000,-36.3210000,-8.7420000,8.2340000,0.000000,0,0,0
4.240,-0.2740000,0.0532000,9.6648000,62.7365000,62.2482000,61.4548000,-36.5140000,-8.9430000,8.5000000,0.000000,0,0,0
4.250,-0.2704000,0.0544000,9.6696000,62.6907000,62.2406000,61.6379000,-36.1380000,-8.8030000,8.7700000,0.000000,0,0,0
4.260,-0.2692000,0.0556000,9.6696000,62.6678000,62.3779000,61.6608000,-36.1910000,-9.0280000,9.3260000,0.000000,0,0,0
4.270,-0.2692000,0.0556000,9.6696000,62.6678000,62.5458000,61.6455000,-36.2900000,-8.8920000,9.2130000,0.000000,0,0,0
4.280,-0.2692000,0.0544000,9.6708000,62.6755000,62.6984000,61.6226000,-36.2490000,-8.7500000,8.9600000,0.000000,0,0,0
4.290,-0.2692000,0.0544000,9.6708000,62.6755000,62.8052000,61.5921000,-36.4120000,-8.6750000,9.0280000,0.000000,0,0,0
4.300,-0.2692000,0.0556000,9.6696000,62.6755000,62.8815000,61.5616000,-36.7810000,-8.7940000,8.5640000,0.000000,0,0,0
4.310,-0.2692000,0.0568000,9.6696000,62.6755000,62.8967000,61.5311000,-36.5460000,-8.4440000,8.7860000,0.000000,0,0,0
4.320,-0.2704000,0.0568000,9.6720000,62.6678000,62.8815000,61.5082000,-36.6140000,-8.8430000,9.5160000,0.000000,0,0,0
4.330,-0.2704000,0.0544000,9.6720000,62.6678000,62.8357000,61.4929000,-36.5270000,-8.9860000,9.6300000,0.000000,0,0,0
4.340,-0.2704000,0.0544000,9.6696000,62.6602000,62.7975000,61.4929000,-36.7310000,-8.5800000,9.3750000,0.000000,0,0,0
4.350,-0.2704000,0.0532000,9.6696000,62.6602000,62.7518000,61.4929000,-36.7480000,-8.9990000,9.4430000,0.000000,0,0,0
4.360,-0.2704000,0.0520000,9.6708000,62.6678000,62.7213000,61.4929000,-36.3180000,-9.0500000,9.0990000,0.000000,0,0,0
4.370,-0.2704000,0.0532000,9.6720000,62.6831000,62.7136000,61.5005000,-36.6990000,-8.5840000,9.1810000,0.000000,0,0,0
4.380,-0.2716000,0.0556000,9.6708000,62.6907000,62.7213000,61.5082000,-36.2270000,-8.8570000,9.4000000,0.000000,0,0,0
4.390,-0.2728000,0.0568000,9.6696000,62.7060000,62.7365000,61.5158000,-36.5500000,-8.7070000,8.8710000,0.000000,0,0,0
4.400,-0.2740000,0.0580000,9.6696000,62.7213000,62.7441000,61.5234000,-36.5310000,-8.6300000,9.4200000,0.000000,0,0,0
4.410,-0.2740000,0.0580000,9.6684000,62.7289000,62.7289000,61.5234000,-36.7490000,-8.6060000,8.5120000,0.000000,0,0,0
4.420,-0.2740000,0.0592000,9.6672000,62.7289000,62.6984000,61.5158000,-36.8070000,-8.7500000,8.4550000,0.000000,0,0,0
4.430,-0.2728000,0.0592000,9.6672000,62.7213000,62.6602000,61.5158000,-36.4310000,-8.8900000,8.8160000,0.000000,0,0,0
4.440,-0.2716000,0.0580000,9.6696000,62.7136000,62.6221000,61.5234000,-36.5160000,-8.9170000,8.9100000,0.000000,0,0,0
4.450,-0.2716000,0.0556000,9.6720000,62.7136000,62.5992000,61.5234000,-36.9850000,-8.7500000,8.8070000,0.000000,0,0,0
4.460,-0.2704000,0.0544000,9.6720000,62.7136000,62.6144000,61.5311000,-36.4770000,-8.8430000,8.4860000,0.000000,0,0,0
4.470,-0.2692000,0.0544000,9.6708000,62.7136000,62.6755000,61.5311000,-36.6060000,-9.0660000,8.4540000,0.000000,0,0,0
4.480,-0.2680000,0.0532000,9.6708000,62.7060000,62.7441000,61.5311000,-36.4870000,-8.8300000,8.5390000,0.000000,0,0,0
4.490,-0.2704000,0.0532000,9.6708000,62.7060000,62.8204000,61.5311000,-36.4850000,-8.7710000,8.4790000,0.000000,0,0,0
4.500,-0.2728000,0.0544000,9.6696000,62.7060000,62.8891000,61.5234000,-36.5780000,-8.8290000,8.9370000,0.000000,0,0,0
4.510,-0.2751000,0.0556000,9.6684000,62.7060000,62.9120000,61.5082000,-36.1200000,-9.3040000,8.1150000,0.000000,0,0,0
4.520,-0.2763000,0.0544000,9.6696000,62.7136000,62.8891000,61.5082000,-36.5790000,-9.0820000,8.9330000,0.000000,0,0,0
4.530,-0.2751000,0.0532000,9.6696000,62.7289000,62.8357000,61.5082000,-36.5150000,-9.1530000,7.7610000,0.000000,0,0,0
4.540,-0.2740000,0.0544000,9.6696000,62.7365000,62.7670000,61.5082000,-36.5050000,-8.9350000,8.0700000,0.000000,0,0,0
4.550,-0.2740000,0.0544000,9.6708000,62.7594000,62.7136000,61.5082000,-36.2010000,-9.1400000,7.9890000,0.000000,0,0,0
4.560,-0.2751000,0.0568000,9.6708000,62.7823000,62.6755000,61.5082000,-36.6900000,-8.8830000,8.7790000,0.000000,0,0,0
4.570,-0.2751000,0.0580000,9.6720000,62.7975000,62.6526000,61.5082000,-36.6000000,-8.7640000,8.4840000,0.000000,0,0,0
4.580,-0.2740000,0.0580000,9.6708000,62.8052000,62.6602000,61.5005000,-36.7930000,-8.9440000,9.2550000,0.000000,0,0,0
4.590,-0.2728000,0.0568000,9.6684000,62.7975000,62.6831000,61.4929000,-36.8220000,-8.6920000,9.2450000,0.000000,0,0,0
4.600,-0.2704000,0.0556000,9.6672000,62.7823000,62.7136000,61.5005000,-36.3720000,-8.6500000,9.4320000,0.000000,0,0,0
4.610,-0.2680000,0.0532000,9.6684000,62.7594000,62.7365000,61.5005000,-36.1720000,-8.8230000,8.7110000,0.000000,0,0,0
4.620,-0.2680000,0.0520000,9.6684000,62.7518000,62.7441000,61.4777000,-36.2580000,-8.8300000,9.2030000,0.000000,0,0,0
4.630,-0.2668000,0.0532000,9.6684000,62.7670000,62.7441000,61.4548000,-36.5320000,-8.5380000,8.6150000,0.000000,0,0,0
4.640,-0.2608000,0.0628000,9.6696000,62.7899000,62.7441000,61.3861000,-36.7340000,-8.7480000,8.4490000,0.000000,0,0,0
4.650,-0.2285000,0.0939000,9.6744000,62.8281000,62.8128000,60.9894000,-36.6190000,-8.6770000,8.9310000,0.000000,0,0,0
4.660,-0.2261000,0.1023000,9.6720000,62.8433000,62.9349000,60.1654000,-36.6590000,-8.7950000,9.0600000,0.000000,0,0,0
4.670,-0.2656000,0.0688000,9.6672000,62.8357000,62.9272000,59.6237000,-36.5720000,-8.6370000,8.8980000,0.000000,0,0,0
4.680,-0.2931000,0.0425000,9.6648000,62.8128000,62.7899000,59.6924000,-36.7920000,-8.9650000,9.0320000,0.000000,0,0,0
4.690,-0.3039000,0.0317000,9.6660000,62.7899000,62.6526000,60.0662000,-36.7810000,-8.9040000,8.8690000,0.000000,0,0,0
4.700,-0.3039000,0.0317000,9.6684000,62.7670000,62.5610000,60.5240000,-36.5570000,-8.8940000,8.5670000,0.000000,0,0,0
4.710,-0.2979000,0.0377000,9.6684000,62.7441000,62.5076000,60.9360000,-36.1610000,-8.8050000,9.1040000,0.000000,0,0,0
4.720,-0.2907000,0.0437000,9.6672000,62.7365000,62.4771000,61.2411000,-36.5800000,-8.7380000,9.4980000,0.000000,0,0,0
4.730,-0.2823000,0.0496000,9.6696000,62.7365000,62.4695000,61.4395000,-36.6140000,-8.9940000,9.0550000,0.000000,0,0,0
4.740,-0.2763000,0.0520000,9.6732000,62.7441000,62.5000000,61.5540000,-36.7360000,-8.6280000,8.8430000,0.000000,0,0,0
4.750,-0.2728000,0.0544000,9.6720000,62.7518000,62.5687000,61.5997000,-36.6650000,-8.4060000,8.4390000,0.000000,0,0,0
4.760,-0.2704000,0.0556000,9.6708000,62.7594000,62.6602000,61.6074000,-36.6150000,-8.6570000,8.9720000,0.000000,0,0,0
4.770,-0.2716000,0.0568000,9.6708000,62.7670000,62.7899000,61.5921000,-36.5470000,-8.5960000,8.7030000,0.000000,0,0,0
4.780,-0.2716000,0.0580000,9.6720000,62.7670000,62.9272000,61.5692000,-36.7870000,-8.7440000,8.7640000,0.000000,0,0,0
4.790,-0.2740000,0.0580000,9.6708000,62.7670000,63.0264000,61.5540000,-36.6550000,-8.4610000,8.8980000,0.000000,0,0,0
4.800,-0.2751000,0.0568000,9.6684000,62.7670000,63.0646000,61.5463000,-36.6310000,-8.7300000,8.8900000,0.000000,0,0,0
4.810,-0.2751000,0.0568000,9.6660000,62.7670000,63.0569000,61.5463000,-36.6060000,-8.6270000,9.1210000,0.000000,0,0,0
4.820,-0.2751000,0.0568000,9.6672000,62.7518000,63.0112000,61.5463000,-36.7010000,-8.7870000,8.9110000,0.000000,0,0,0
4.830,-0.2751000,0.0580000,9.6684000,62.7441000,62.9730000,61.5540000,-36.7970000,-8.6530000,8.7160000,0.000000,0,0,0
4.840,-0.2763000,0.0604000,9.6684000,62.7441000,62.9578000,61.5540000,-36.6490000,-8.9000000,8.6100000,0.000000,0,0,0
4.850,-0.2775000,0.0616000,9.6696000,62.7365000,62.9807000,61.5616000,-36.4860000,-8.6790000,8.7330000,0.000000,0,0,0
4.860,-0.2787000,0.0616000,9.6732000,62.7365000,63.0188000,61.5616000,-36.5330000,-8.8130000,8.6780000,0.000000,0,0,0
4.870,-0.2787000,0.0604000,9.6744000,62.7365000,63.0569000,61.5616000,-36.5940000,-8.7440000,9.0740000,0.000000,0,0,0
4.880,-0.2787000,0.0580000,9.6732000,62.7441000,63.0798000,61.5540000,-36.5700000,-8.7570000,9.1510000,0.000000,0,0,0
4.890,-0.2787000,0.0556000,9.6708000,62.7518000,63.0722000,61.5463000,-36.3740000,-8.8530000,9.0120000,0.000000,0,0,0
4.900,-0.2787000,0.0556000,9.6660000,62.7823000,63.0264000,61.5311000,-36.4560000,-8.9580000,9.0100000,0.000000,0,0,0
4.910,-0.2811000,0.0580000,9.6684000,62.7518000,62.9807000,61.5311000,-36.4260000,-8.6980000,9.3660000,0.000000,0,0,0
4.920,-0.2835000,0.0604000,9.6696000,62.7289000,62.9272000,61.5311000,-36.5660000,-8.6160000,9.1090000,0.000000,0,0,0
4.930,-0.2847000,0.0640000,9.6696000,62.6907000,62.8510000,61.5387000,-36.8100000,-8.6090000,8.9700000,0.000000,0,0,0
4.940,-0.2835000,0.0628000,9.6708000,62.6602000,62.7670000,61.5387000,-36.8180000,-8.7820000,8.6610000,0.000000,0,0,0
4.950,-0.2811000,0.0592000,9.6696000,62.6526000,62.6831000,61.5387000,-36.4090000,-8.6510000,8.6380000,0.000000,0,0,0
4.960,-0.2799000,0.0556000,9.6696000,62.6526000,62.6144000,61.5311000,-36.5330000,-8.8630000,8.3680000,0.000000,0,0,0
4.970,-0.2787000,0.0544000,9.6708000,62.6602000,62.5687000,61.5311000,-36.4310000,-8.5240000,8.8750000,0.000000,0,0,0
4.980,-0.2787000,0.0532000,9.6720000,62.6755000,62.5610000,61.5311000,-36.6440000,-8.9390000,8.8390000,0.000000,0,0,0
4.990,-0.2787000,0.0544000,9.6708000,62.6984000,62.6068000,61.5311000,-36.8930000,-8.8940000,8.1240000,0.000000,0,0,0
5.000,-0.2799000,0.0580000,9.6708000,62.7136000,62.6526000,61.5234000,-36.8020000,-8.9600000,8.4080000,0.000000,0,0,0
5.010,-0.2799000,0.0604000,9.6720000,62.7136000,62.6907000,61.5234000,-36.6620000,-8.8190000,8.8230000,0.000000,0,0,0
5.020,-0.2799000,0.0604000,9.6732000,62.7136000,62.7060000,61.5234000,-36.5550000,-8.7200000,8.1630000,0.000000,0,0,0
5.030,-0.2799000,0.0604000,9.6732000,62.7136000,62.7060000,61.5234000,-36.5070000,-8.8660000,8.0460000,0.000000,0,0,0
5.040,-0.2811000,0.0604000,9.6720000,62.7136000,62.6831000,61.5234000,-36.7770000,-8.8920000,8.3650000,0.000000,0,0,0
5.050,-0.2823000,0.0604000,9.6708000,62.7136000,62.6526000,61.5234000,-36.2510000,-8.7360000,7.9100000,0.000000,0,0,0
5.060,-0.2835000,0.0604000,9.6708000,62.6984000,62.6297000,61.5158000,-36.6680000,-8.7600000,8.6970000,0.000000,0,0,0
5.070,-0.2823000,0.0592000,9.6720000,62.6907000,62.6068000,61.5158000,-36.4750000,-8.8690000,9.0680000,0.000000,0,0,0
5.080,-0.2811000,0.0568000,9.6720000,62.6831000,62.5992000,61.5158000,-36.7700000,-8.8130000,8.3840000,0.000000,0,0,0
5.090,-0.2811000,0.0568000,9.6720000,62.6755000,62.5992000,61.5158000,-36.7590000,-8.7510000,8.4690000,0.000000,0,0,0
5.100,-0.2799000,0.0568000,9.6720000,62.6755000,62.6144000,61.5234000,-36.6730000,-8.5000000,8.3100000,0.000000,0,0,0
5.110,-0.2799000,0.0580000,9.6720000,62.6755000,62.6373000,61.5311000,-36.7820000,-8.8250000,8.7910000,0.000000,0,0,0
5.120,-0.2811000,0.0592000,9.6720000,62.6755000,62.6602000,61.5311000,-36.7160000,-8.8590000,8.6420000,0.000000,0,0,0
5.130,-0.2823000,0.0604000,9.6720000,62.6678000,62.6831000,61.5311000,-36.4800000,-8.5790000,8.5450000,0.000000,0,0,0
5.140,-0.2823000,0.0616000,9.6708000,62.6831000,62.6984000,61.5311000,-36.5420000,-8.8210000,8.5560000,0.000000,0,0,0
5.150,-0.2823000,0.0604000,9.6708000,62.6984000,62.6984000,61.5234000,-36.7800000,-9.0170000,8.6850000,0.000000,0,0,0
5.160,-0.2823000,0.0568000,9.6720000,62.6984000,62.6678000,61.5158000,-36.8810000,-8.8950000,8.6180000,0.000000,0,0,0
5.170,-0.2823000,0.0544000,9.6720000,62.6984000,62.6297000,61.5082000,-36.5290000,-8.7800000,8.1030000,0.000000,0,0,0
5.180,-0.2811000,0.0532000,9.6720000,62.6984000,62.6068000,61.5158000,-36.8060000,-8.8930000,8.8000000,0.000000,0,0,0
5.190,-0.2799000,0.0544000,9.6732000,62.7060000,62.6297000,61.5158000,-36.6020000,-8.6800000,8.7780000,0.000000,0,0,0
5.200,-0.2799000,0.0568000,9.6732000,62.7136000,62.6755000,61.5234000,-36.5330000,-8.7630000,9.2280000,0.000000,0,0,0
5.210,-0.2811000,0.0592000,9.6732000,62.7136000,62.7213000,61.5311000,-36.4740000,-8.8240000,8.8200000,0.000000,0,0,0
5.220,-0.2823000,0.0592000,9.6720000,62.7060000,62.7594000,61.5387000,-36.7590000,-9.0540000,8.5640000,0.000000,0,0,0
5.230,-0.2811000,0.0580000,9.6720000,62.6907000,62.7823000,61.5463000,-36.6530000,-8.7820000,9.0570000,0.000000,0,0,0
5.240,-0.2811000,0.0568000,9.6708000,62.6755000,62.7594000,61.5540000,-36.6510000,-9.0880000,9.2070000,0.000000,0,0,0
5.250,-0.2823000,0.0568000,9.6684000,62.6602000,62.7136000,61.5463000,-36.5880000,-8.7240000,8.9500000,0.000000,0,0,0
5.260,-0.2835000,0.0556000,9.6672000,62.6526000,62.6526000,61.5463000,-36.6510000,-8.8510000,8.7860000,0.000000,0,0,0
5.270,-0.2835000,0.0556000,9.6684000,62.6450000,62.6068000,61.5387000,-36.6230000,-8.8660000,8.6640000,0.000000,0,0,0
5.280,-0.2823000,0.0556000,9.6708000,62.6450000,62.5916000,61.5387000,-36.4600000,-8.9040000,9.0200000,0.000000,0,0,0
5.290,-0.2823000,0.0544000,9.6696000,62.6526000,62.6297000,61.5311000,-36.7180000,-9.0260000,9.0880000,0.000000,0,0,0
5.300,-0.2823000,0.0544000,9.6696000,62.6678000,62.6984000,61.5311000,-36.9810000,-8.8810000,8.5720000,0.000000,0,0,0
5.310,-0.2811000,0.0556000,9.6696000,62.6831000,62.7670000,61.5311000,-36.4530000,-9.1060000,8.5840000,0.000000,0,0,0
5.320,-0.2811000,0.0556000,9.6708000,62.7060000,62.8281000,61.5311000,-36.6940000,-9.0230000,8.9210000,0.000000,0,0,0
5.330,-0.2823000,0.0568000,9.6708000,62.7213000,62.8510000,61.5311000,-36.5400000,-8.9910000,8.9280000,0.000000,0,0,0
5.340,-0.2835000,0.0580000,9.6696000,62.7365000,62.8204000,61.5311000,-36.5880000,-9.0830000,9.0460000,0.000000,0,0,0
5.350,-0.2835000,0.0592000,9.6696000,62.7441000,62.7441000,61.5311000,-36.4570000,-9.0800000,8.8140000,0.000000,0,0,0
5.360,-0.2811000,0.0568000,9.6708000,62.7365000,62.6602000,61.5311000,-36.5310000,-9.3770000,8.5610000,0.000000,0,0,0
5.370,-0.2799000,0.0544000,9.6720000,62.7289000,62.5992000,61.5234000,-36.4800000,-8.9810000,8.0310000,0.000000,0,0,0
5.380,-0.2787000,0.0532000,9.6708000,62.7213000,62.5763000,61.5158000,-36.4530000,-9.0410000,9.3470000,0.000000,0,0,0
5.390,-0.2787000,0.0520000,9.6708000,62.7136000,62.5992000,61.5158000,-36.2440000,-8.7590000,9.1020000,0.000000,0,0,0
5.400,-0.2799000,0.0508000,9.6696000,62.6907000,62.6526000,61.5158000,-36.6460000,-8.7750000,8.2260000,0.000000,0,0,0
5.410,-0.2823000,0.0508000,9.6684000,62.6755000,62.7136000,61.5234000,-36.5710000,-8.8720000,8.3510000,0.000000,0,0,0
5.420,-0.2835000,0.0520000,9.6672000,62.6678000,62.7594000,61.5311000,-36.2970000,-8.6110000,9.1160000,0.000000,0,0,0
5.430,-0.2835000,0.0520000,9.6672000,62.6755000,62.7747000,61.5311000,-36.4580000,-9.0810000,8.5520000,0.000000,0,0,0
5.440,-0.2847000,0.0520000,9.6696000,62.6755000,62.7747000,61.5311000,-36.5860000,-9.2680000,8.4970000,0.000000,0,0,0
5.450,-0.2847000,0.0508000,9.6696000,62.6907000,62.7518000,61.5387000,-36.3940000,-8.7020000,8.1230000,0.000000,0,0,0
5.460,-0.2847000,0.0532000,9.6660000,62.7060000,62.7289000,61.5387000,-36.7100000,-9.3000000,8.7120000,0.000000,0,0,0
5.470,-0.2847000,0.0544000,9.6648000,62.7060000,62.6831000,61.5311000,-36.6980000,-8.6550000,8.8270000,0.000000,0,0,0
5.480,-0.2835000,0.0556000,9.6684000,62.7060000,62.6297000,61.5311000,-36.4070000,-8.8790000,9.0000000,0.000000,0,0,0
5.490,-0.2823000,0.0568000,9.6720000,62.6984000,62.5839000,61.5234000,-36.5540000,-8.8550000,9.4210000,0.000000,0,0,0
5.500,-0.2811000,0.0568000,9.6732000,62.6907000,62.5763000,61.5234000,-36.4140000,-9.0150000,8.9680000,0.000000,0,0,0
5.510,-0.2811000,0.0580000,9.6732000,62.6831000,62.5992000,61.5234000,-36.3660000,-8.8230000,8.9700000,0.000000,0,0,0
5.520,-0.2811000,0.0580000,9.6732000,62.6678000,62.6297000,61.5234000,-36.5720000,-8.8880000,8.7530000,0.000000,0,0,0
5.530,-0.2811000,0.0580000,9.6756000,62.6526000,62.6907000,61.5234000,-36.3690000,-8.9770000,8.5980000,0.000000,0,0,0
5.540,-0.2811000,0.0580000,9.6744000,62.6602000,62.7289000,61.5311000,-36.5290000,-8.7070000,8.8600000,0.000000,0,0,0
5.550,-0.2835000,0.0580000,9.6720000,62.6678000,62.7365000,61.5387000,-36.7030000,-8.7310000,8.9430000,0.000000,0,0,0
5.560,-0.2847000,0.0568000,9.6708000,62.6907000,62.6984000,61.5387000,-36.4100000,-8.8890000,9.1740000,0.000000,0,0,0
5.570,-0.2859000,0.0556000,9.6708000,62.7213000,62.6450000,61.5463000,-36.3970000,-8.7760000,9.1090000,0.000000,0,0,0
5.580,-0.2847000,0.0556000,9.6672000,62.7365000,62.6068000,61.5540000,-36.5540000,-8.4810000,8.7640000,0.000000,0,0,0
5.590,-0.2835000,0.0568000,9.6660000,62.7441000,62.5916000,61.5616000,-36.4860000,-8.6360000,8.7000000,0.000000,0,0,0
5.600,-0.2823000,0.0592000,9.6684000,62.7518000,62.5916000,61.5540000,-36.5710000,-8.9730000,9.0380000,0.000000,0,0,0
5.610,-0.2823000,0.0604000,9.6720000,62.7518000,62.6068000,61.5616000,-36.3770000,-8.8130000,8.7840000,0.000000,0,0,0
5.620,-0.2823000,0.0616000,9.6744000,62.7670000,62.6373000,61.5616000,-36.7110000,-8.7470000,8.2820000,0.000000,0,0,0
5.630,-0.2823000,0.0604000,9.6720000,62.7747000,62.6602000,61.5692000,-36.5110000,-8.8550000,8.6030000,0.000000,0,0,0
5.640,-0.2799000,0.0580000,9.6720000,62.8128000,62.6678000,61.5616000,-36.6580000,-9.0170000,8.6290000,0.000000,0,0,0
5.650,-0.2799000,0.0568000,9.6720000,62.8738000,62.6678000,61.5463000,-36.5050000,-9.1290000,8.5640000,0.000000,0,0,0
5.660,-0.2787000,0.0544000,9.6720000,62.9272000,62.6831000,61.5311000,-36.8870000,-9.0390000,9.1650000,0.000000,0,0,0
5.670,-0.2787000,0.0520000,9.6720000,63.0035000,62.7136000,61.5158000,-36.5550000,-8.8770000,8.7090000,0.000000,0,0,0
5.680,-0.2775000,0.0520000,9.6756000,63.0875000,62.7670000,61.5005000,-36.8260000,-8.8770000,8.5080000,0.000000,0,0,0
5.690,-0.2787000,0.0532000,9.6804000,63.1790000,62.8586000,61.4853000,-36.5880000,-8.8470000,8.5460000,0.000000,0,0,0
5.700,-0.2811000,0.0568000,9.6816000,63.2629000,62.9654000,61.4624000,-36.4460000,-9.0410000,8.0730000,0.000000,0,0,0
5.710,-0.2847000,0.0604000,9.6780000,63.3392000,63.0341000,61.4548000,-36.4420000,-8.9650000,8.4980000,0.000000,0,0,0
5.720,-0.2871000,0.0628000,9.6744000,63.4003000,63.0341000,61.4548000,-36.3930000,-9.1090000,8.5510000,0.000000,0,0,0
5.730,-0.2883000,0.0640000,9.6768000,63.4308000,62.9883000,61.4548000,-36.5980000,-8.7770000,8.9480000,0.000000,0,0,0
5.740,-0.2907000,0.0664000,9.6732000,63.4460000,62.9349000,61.4700000,-36.4370000,-8.7220000,8.4440000,0.000000,0,0,0
5.750,-0.2919000,0.0676000,9.6708000,63.4613000,62.8738000,61.4777000,-36.5290000,-8.6920000,8.9420000,0.000000,0,0,0
5.760,-0.2919000,0.0688000,9.6636000,63.3774000,62.8128000,61.4853000,-36.7050000,-8.7200000,8.7750000,0.000000,0,0,0
5.770,-0.2895000,0.0688000,9.6672000,63.3163000,62.7823000,61.4853000,-36.6500000,-8.9090000,8.8190000,0.000000,0,0,0
5.780,-0.2895000,0.0700000,9.6660000,63.2172000,62.7899000,61.4853000,-36.7220000,-9.0310000,8.6200000,0.000000,0,0,0
5.790,-0.2811000,0.0700000,9.6732000,63.1943000,62.8128000,61.4624000,-36.2290000,-8.8870000,9.6030000,0.000000,0,0,0
5.800,-0.2787000,0.0748000,9.6696000,63.1409000,62.8433000,61.3785000,-36.5200000,-9.3740000,8.9630000,0.000000,0,0,0
5.810,-0.2763000,0.0772000,9.6744000,63.1638000,62.8891000,61.2564000,-36.2260000,-8.7760000,8.6290000,0.000000,0,0,0
5.820,-0.2871000,0.0748000,9.6684000,63.1561000,62.9044000,61.1801000,-36.2860000,-8.5640000,9.0720000,0.000000,0,0,0
5.830,-0.2847000,0.0748000,9.6744000,63.1790000,62.9120000,61.1649000,-36.4060000,-8.8570000,8.9960000,0.000000,0,0,0
5.840,-0.2811000,0.0807000,9.6684000,63.1638000,62.9272000,61.1115000,-36.5910000,-9.1650000,9.4620000,0.000000,0,0,0
5.850,-0.2692000,0.0951000,9.6672000,63.1866000,62.9883000,60.9283000,-36.7150000,-8.9310000,8.5950000,0.000000,0,0,0
5.860,-0.2704000,0.0951000,9.6648000,63.1638000,63.0569000,60.6003000,-36.8630000,-8.7330000,8.8430000,0.000000,0,0,0
5.870,-0.2883000,0.0819000,9.6600000,63.0646000,63.0417000,60.4019000,-36.5820000,-8.7890000,9.5390000,0.000000,0,0,0
5.880,-0.3027000,0.0676000,9.6624000,62.9654000,62.9730000,60.4477000,-36.4920000,-8.6560000,9.1740000,0.000000,0,0,0
5.890,-0.3086000,0.0628000,9.6672000,62.8815000,62.9120000,60.6613000,-36.6150000,-8.4410000,9.2070000,0.000000,0,0,0
5.900,-0.3086000,0.0628000,9.6708000,62.8357000,62.8967000,60.9283000,-36.5420000,-9.1150000,9.7690000,0.000000,0,0,0
5.910,-0.3063000,0.0664000,9.6732000,62.8052000,62.9120000,61.1725000,-36.4740000,-8.6300000,9.3090000,0.000000,0,0,0
5.920,-0.3039000,0.0712000,9.6744000,62.7899000,62.9272000,61.3632000,-36.3390000,-8.5870000,9.9570000,0.000000,0,0,0
5.930,-0.3003000,0.0748000,9.6744000,62.7975000,62.9501000,61.4853000,-36.5560000,-8.9080000,9.2790000,0.000000,0,0,0
5.940,-0.2967000,0.0760000,9.6732000,62.8204000,62.9349000,61.5616000,-36.5390000,-8.9680000,9.0360000,0.000000,0,0,0
5.950,-0.2907000,0.0760000,9.6792000,62.8586000,62.8891000,61.5845000,-36.6720000,-8.6290000,9.0820000,0.000000,0,0,0
5.960,-0.2919000,0.0784000,9.6732000,62.9578000,62.8891000,61.5692000,-36.6840000,-8.5540000,9.4050000,0.000000,0,0,0
5.970,-0.2931000,0.0796000,9.6684000,62.9654000,62.8662000,61.5540000,-36.5640000,-8.7280000,9.1190000,0.000000,0,0,0
5.980,-0.2931000,0.0796000,9.6672000,62.9425000,62.8662000,61.5311000,-36.7090000,-8.4940000,9.0030000,0.000000,0,0,0
5.990,-0.2955000,0.0784000,9.6672000,62.9120000,62.8815000,61.5082000,-36.6650000,-8.6640000,9.0800000,0.000000,0,0,0
6.000,-0.2967000,0.0784000,9.6672000,62.8815000,62.9196000,61.5005000,-36.5200000,-8.9360000,9.0620000,0.000000,0,0,0
6.010,-0.2979000,0.0784000,9.6660000,62.8510000,62.9349000,61.4929000,-36.6710000,-8.6490000,9.1460000,0.000000,0,0,0
6.020,-0.2991000,0.0796000,9.6672000,62.8281000,62.9044000,61.5005000,-36.2890000,-8.7610000,9.5380000,0.000000,0,0,0
6.030,-0.2991000,0.0807000,9.6684000,62.7975000,62.8204000,61.5082000,-36.2560000,-8.8140000,8.5440000,0.000000,0,0,0
6.040,-0.2991000,0.0819000,9.6684000,62.7594000,62.6984000,61.5082000,-36.4990000,-8.9650000,8.4610000,0.000000,0,0,0
6.050,-0.3003000,0.0819000,9.6684000,62.7213000,62.5839000,61.5158000,-36.6870000,-8.6290000,9.1450000,0.000000,0,0,0
6.060,-0.3003000,0.0807000,9.6672000,62.6907000,62.4847000,61.5234000,-36.8290000,-8.4270000,8.9410000,0.000000,0,0,0
6.070,-0.2991000,0.0819000,9.6672000,62.6755000,62.4161000,61.5311000,-36.5300000,-8.7730000,8.9520000,0.000000,0,0,0
6.080,-0.2979000,0.0831000,9.6684000,62.6526000,62.3779000,61.5387000,-36.6870000,-8.7720000,8.9790000,0.000000,0,0,0
6.090,-0.2979000,0.0819000,9.6696000,62.6373000,62.3703000,61.5387000,-36.4730000,-8.6230000,8.4350000,0.000000,0,0,0
6.100,-0.2943000,0.0784000,9.6720000,62.6144000,62.4008000,61.5387000,-36.8020000,-8.7150000,8.9230000,0.000000,0,0,0
6.110,-0.2919000,0.0772000,9.6732000,62.6068000,62.4237000,61.5311000,-36.4160000,-8.5290000,8.8010000,0.000000,0,0,0
6.120,-0.2883000,0.0772000,9.6720000,62.5916000,62.4466000,61.5234000,-36.6640000,-9.0080000,8.8830000,0.000000,0,0,0
6.130,-0.2883000,0.0772000,9.6696000,62.5763000,62.4771000,61.5082000,-36.5840000,-8.5910000,8.1670000,0.000000,0,0,0
6.140,-0.2895000,0.0772000,9.6684000,62.5610000,62.5153000,61.4929000,-36.7590000,-8.4580000,9.5230000,0.000000,0,0,0
6.150,-0.2907000,0.0784000,9.6684000,62.5610000,62.5534000,61.4853000,-36.4420000,-8.3110000,8.8100000,0.000000,0,0,0
6.160,-0.2919000,0.0807000,9.6696000,62.5610000,62.5992000,61.4853000,-36.6000000,-8.6920000,8.5990000,0.000000,0,0,0
6.170,-0.2919000,0.0819000,9.6684000,62.5610000,62.6297000,61.4624000,-36.4100000,-8.5030000,8.8240000,0.000000,0,0,0
6.180,-0.2943000,0.0807000,9.6696000,62.5763000,62.6297000,61.4548000,-36.4580000,-8.3190000,8.6250000,0.000000,0,0,0
6.190,-0.2943000,0.0796000,9.6708000,62.5992000,62.6297000,61.4624000,-36.6090000,-8.3920000,8.9500000,0.000000,0,0,0
6.200,-0.2943000,0.0784000,9.6720000,62.6144000,62.6221000,61.4777000,-36.5090000,-8.3930000,8.7390000,0.000000,0,0,0
6.210,-0.2931000,0.0772000,9.6720000,62.6373000,62.5916000,61.4853000,-36.4010000,-8.6210000,8.8560000,0.000000,0,0,0
6.220,-0.2919000,0.0760000,9.6708000,62.6450000,62.5381000,61.5005000,-36.2600000,-8.6160000,9.0010000,0.000000,0,0,0
6.230,-0.2895000,0.0748000,9.6696000,62.6602000,62.4924000,61.5082000,-36.3450000,-8.4290000,9.2200000,0.000000,0,0,0
6.240,-0.2883000,0.0748000,9.6708000,62.6755000,62.4771000,61.5082000,-36.4220000,-8.3910000,9.2900000,0.000000,0,0,0
6.250,-0.2883000,0.0748000,9.6720000,62.6984000,62.4695000,61.5158000,-36.7760000,-8.6600000,8.9620000,0.000000,0,0,0
6.260,-0.2883000,0.0736000,9.6720000,62.7213000,62.4619000,61.5158000,-36.7160000,-8.6220000,8.9820000,0.000000,0,0,0
6.270,-0.2883000,0.0724000,9.6720000,62.7518000,62.4466000,61.5158000,-36.7170000,-8.7380000,8.9000000,0.000000,0,0,0
6.280,-0.2883000,0.0724000,9.6732000,62.7747000,62.4313000,61.5234000,-36.6320000,-8.8400000,9.2290000,0.000000,0,0,0
6.290,-0.2883000,0.0760000,9.6732000,62.8052000,62.4237000,61.5311000,-36.5570000,-8.5260000,9.2100000,0.000000,0,0,0
6.300,-0.2883000,0.0772000,9.6732000,62.8357000,62.4313000,61.5387000,-36.6220000,-8.6360000,8.9010000,0.000000,0,0,0
6.310,-0.2883000,0.0772000,9.6768000,62.8967000,62.4313000,61.5463000,-36.5420000,-8.5330000,9.3090000,0.000000,0,0,0
6.320,-0.2895000,0.0772000,9.6768000,62.9807000,62.4466000,61.5540000,-36.6970000,-8.7610000,9.0360000,0.000000,0,0,0
6.330,-0.2931000,0.0784000,9.6756000,63.0493000,62.4390000,61.5768000,-36.7850000,-8.6630000,9.4520000,0.000000,0,0,0
6.340,-0.2967000,0.0772000,9.6780000,63.1027000,62.4084000,61.6226000,-36.8340000,-8.4530000,9.7450000,0.000000,0,0,0
6.350,-0.2895000,0.0748000,9.7007000,63.2401000,62.4008000,61.6989000,-36.5760000,-8.3870000,9.4720000,0.000000,0,0,0
6.360,-0.2823000,0.0748000,9.7091000,63.5452000,62.5763000,61.7294000,-36.7410000,-8.5040000,8.8520000,0.000000,0,0,0
6.370,-0.2704000,0.0736000,9.7210000,63.9191000,62.9044000,61.7218000,-36.6230000,-8.4430000,9.3780000,0.000000,0,0,0
6.380,-0.2608000,0.0760000,9.7294000,64.3311000,63.4079000,61.6608000,-36.7430000,-8.6850000,8.8680000,0.000000,0,0,0
6.390,-0.2512000,0.0927000,9.7342000,64.7736000,64.0259000,61.4548000,-36.2710000,-8.4050000,9.3340000,0.000000,0,0,0
6.400,-0.2548000,0.1238000,9.7414000,65.2313000,64.6896000,61.0809000,-36.4030000,-8.7020000,9.5860000,0.000000,0,0,0
6.410,-0.2823000,0.1621000,9.7198000,65.5975000,65.3000000,60.6155000,-36.3660000,-8.7440000,9.7640000,0.000000,0,0,0
6.420,-0.3134000,0.1848000,9.7115000,65.7883000,65.6433000,60.2112000,-36.3490000,-8.3820000,10.2270000,0.000000,0,0,0
6.430,-0.3409000,0.1932000,9.7127000,65.9943000,65.8188000,59.8602000,-36.2280000,-8.4340000,9.9190000,0.000000,0,0,0
6.440,-0.3613000,0.1657000,9.7246000,66.2689000,65.8569000,59.6695000,-36.5310000,-8.7030000,10.4200000,0.000000,0,0,0
6.450,-0.3768000,0.1406000,9.7246000,66.5817000,65.8493000,59.6848000,-36.6390000,-8.7390000,9.6630000,0.000000,0,0,0
6.460,-0.3744000,0.1298000,9.7342000,66.9174000,65.8798000,59.7687000,-36.3010000,-8.4060000,10.3060000,0.000000,0,0,0
6.470,-0.3589000,0.1370000,9.7270000,67.2455000,66.0706000,59.7382000,-36.1230000,-8.3780000,9.3580000,0.000000,0,0,0
6.480,-0.3362000,0.1418000,9.7246000,67.4744000,66.3834000,59.7458000,-36.4490000,-8.3460000,9.2440000,0.000000,0,0,0
6.490,-0.3063000,0.1657000,9.7198000,67.6346000,66.8488000,59.7458000,-36.1890000,-8.3220000,9.6300000,0.000000,0,0,0
6.500,-0.3074000,0.1717000,9.7210000,67.6422000,67.4591000,59.8373000,-36.2900000,-8.2940000,9.7610000,0.000000,0,0,0
6.510,-0.3242000,0.1944000,9.7246000,67.5049000,68.3670000,60.0433000,-36.5500000,-8.1110000,9.8980000,0.000000,0,0,0
6.520,-0.3637000,0.1932000,9.7545000,67.2760000,69.4885000,60.3256000,-36.4200000,-8.3250000,10.3610000,0.000000,0,0,0
6.530,-0.3828000,0.1992000,9.8203000,67.3447000,70.7397000,60.3867000,-36.5640000,-8.5850000,9.9630000,0.000000,0,0,0
6.540,-0.4235000,0.1908000,9.9340000,68.0389000,72.0901000,59.9899000,-36.3210000,-8.3910000,9.8630000,0.000000,0,0,0
6.550,-0.4773000,0.2040000,10.0357000,69.4733000,73.7991000,59.0591000,-36.1540000,-7.7920000,10.3730000,0.000000,0,0,0
6.560,-0.5144000,0.2411000,10.1397000,70.9839000,76.7746000,57.7698000,-36.1950000,-7.8890000,9.8420000,0.000000,0,0,0
6.570,-0.5431000,0.2901000,10.2510000,72.1283000,84.2209000,56.4117000,-36.0630000,-7.8580000,10.0040000,0.000000,0,0,0
6.580,-0.5491000,0.3080000,10.2821000,72.6547000,94.6426000,54.9622000,-35.7920000,-7.8440000,10.2020000,0.000000,0,0,0
6.590,-0.5312000,0.2925000,10.1972000,72.4640000,103.8513000,53.4363000,-35.7270000,-7.9090000,10.0690000,0.000000,0,0,0
6.600,-0.5383000,0.2638000,10.0369000,71.0907000,108.0704000,52.5436000,-35.9040000,-8.0790000,10.2140000,0.000000,0,0,0
6.610,-0.5670000,0.2781000,9.8861000,68.1992000,106.2088000,52.4521000,-35.4690000,-7.9950000,10.3020000,0.000000,0,0,0
6.620,-0.6352000,0.3116000,9.7964000,64.0717000,100.2655000,52.8107000,-35.6820000,-7.9920000,11.0510000,0.000000,0,0,0
6.630,-0.7214000,0.3284000,9.7797000,59.4864000,93.4372000,53.3218000,-35.5910000,-7.9660000,10.7740000,0.000000,0,0,0
6.640,-0.8015000,0.2913000,9.7809000,55.0766000,87.4557000,53.7186000,-35.4920000,-8.2190000,10.0210000,0.000000,0,0,0
6.650,-0.8565000,0.1968000,9.7306000,51.0254000,80.3528000,53.9856000,-35.8690000,-8.0150000,9.6570000,0.000000,0,0,0
6.660,-0.8733000,0.0855000,9.6720000,47.2717000,69.4046000,54.2984000,-35.8340000,-8.2230000,10.3210000,0.000000,0,0,0
6.670,-0.8948000,-0.0066000,9.6947000,43.8461000,55.6030000,54.9698000,-36.0970000,-8.6760000,9.1000000,0.000000,0,0,0
6.680,-0.9092000,-0.0389000,9.8981000,41.1835000,44.0598000,56.0760000,-36.2150000,-8.5070000,10.3830000,0.000000,0,0,0
6.690,-0.9259000,-0.0807000,10.2570000,40.2374000,42.1066000,57.8918000,-35.9590000,-8.3070000,10.1490000,0.000000,0,0,0
6.700,-0.8733000,-0.0999000,10.3718000,40.8783000,46.1426000,58.9676000,-36.2180000,-8.6180000,10.1590000,0.000000,0,0,0
6.710,-0.8039000,-0.1119000,10.3922000,42.0074000,50.3311000,60.2341000,-35.8970000,-8.6340000,9.7770000,0.000000,0,0,0
6.720,-0.7680000,-0.1059000,10.3587000,43.2129000,53.0090000,61.8134000,-36.2460000,-8.9470000,9.2030000,0.000000,0,0,0
6.730,-0.7716000,-0.1119000,10.3156000,44.7006000,54.3976000,63.2172000,-36.2080000,-8.9450000,9.1030000,0.000000,0,0,0
6.740,-0.7919000,-0.1202000,10.3012000,46.9666000,54.8935000,64.0335000,-36.3030000,-9.0690000,9.5730000,0.000000,0,0,0
6.750,-0.8195000,-0.1154000,10.3264000,50.0946000,54.7485000,64.1403000,-36.3780000,-9.1160000,9.2820000,0.000000,0,0,0
6.760,-0.8494000,-0.0927000,10.3635000,53.7109000,54.4052000,63.5986000,-36.4960000,-9.0260000,9.4700000,0.000000,0,0,0
6.770,-0.8613000,-0.0508000,10.4089000,57.2968000,54.4052000,62.6297000,-36.5810000,-9.3120000,9.4400000,0.000000,0,0,0
6.780,-0.8458000,-0.0150000,10.4604000,60.5240000,55.0842000,61.3556000,-36.5590000,-9.4910000,9.5920000,0.000000,0,0,0
6.790,-0.7943000,-0.0114000,10.5046000,63.2935000,56.1523000,59.9976000,-36.2590000,-9.4780000,9.3810000,0.000000,0,0,0
6.800,-0.7190000,-0.0317000,10.5381000,65.4297000,57.3730000,58.9066000,-36.4460000,-9.4360000,9.5670000,0.000000,0,0,0
6.810,-0.6759000,-0.0329000,10.5477000,66.6504000,58.7921000,58.3801000,-36.5460000,-9.2840000,9.3040000,0.000000,0,0,0
6.820,-0.6795000,-0.0138000,10.5285000,66.8716000,60.3867000,58.2581000,-36.6890000,-9.1700000,9.3470000,0.000000,0,0,0
6.830,-0.6903000,0.0126000,10.5022000,66.3757000,61.7294000,58.1818000,-36.8660000,-9.4050000,9.7730000,0.000000,0,0,0
6.840,-0.6747000,0.0425000,10.4687000,65.5136000,62.5381000,58.0521000,-37.0240000,-9.5140000,9.1160000,0.000000,0,0,0
6.850,-0.6328000,0.0461000,10.4089000,64.5523000,62.3398000,57.9910000,-36.9730000,-9.2900000,9.3260000,0.000000,0,0,0
6.860,-0.5766000,0.0377000,10.3611000,63.6826000,60.7834000,58.1741000,-37.1760000,-9.4010000,9.2790000,0.000000,0,0,0
6.870,-0.5407000,0.0461000,10.3228000,62.8357000,58.5403000,58.4946000,-37.3010000,-9.7210000,9.0370000,0.000000,0,0,0
6.880,-0.5455000,0.0843000,10.2761000,61.8668000,56.5262000,58.7540000,-37.0970000,-9.4640000,9.5790000,0.000000,0,0,0
6.890,-0.5922000,0.1238000,10.2426000,60.7758000,55.5649000,58.6929000,-37.3840000,-9.5010000,8.9220000,0.000000,0,0,0
6.900,-0.6556000,0.1322000,10.2283000,59.8221000,55.9769000,58.1665000,-37.2930000,-9.7550000,9.9740000,0.000000,0,0,0
6.910,-0.6831000,0.1047000,10.2199000,59.2270000,57.3120000,57.3044000,-37.2940000,-10.0430000,9.3750000,0.000000,0,0,0
6.920,-0.6639000,0.0473000,10.1876000,58.8379000,58.5175000,56.5414000,-37.6210000,-9.6960000,9.3210000,0.000000,0,0,0
6.930,-0.6185000,-0.0102000,10.1278000,58.3801000,58.7845000,56.3431000,-37.5170000,-9.8070000,9.0850000,0.000000,0,0,0
6.940,-0.5730000,-0.0461000,10.0548000,57.6248000,58.0139000,56.8008000,-37.8680000,-9.8290000,9.4110000,0.000000,0,0,0
6.950,-0.5479000,-0.0712000,9.9830000,56.6864000,56.7856000,57.6477000,-37.8950000,-10.0360000,9.8420000,0.000000,0,0,0
6.960,-0.5491000,-0.0831000,9.9196000,56.0074000,55.6335000,58.4717000,-37.8040000,-10.1680000,9.1600000,0.000000,0,0,0
6.970,-0.5670000,-0.0927000,9.8670000,55.7785000,54.8096000,58.9523000,-37.6200000,-10.1480000,8.6960000,0.000000,0,0,0
6.980,-0.5910000,-0.0891000,9.8263000,55.9845000,54.5502000,59.1278000,-37.9940000,-10.1640000,9.7930000,0.000000,0,0,0
6.990,-0.6005000,-0.0891000,9.8084000,56.4651000,54.8096000,59.1278000,-37.9670000,-10.3090000,9.3510000,0.000000,0,0,0
7.000,-0.5886000,-0.1011000,9.8191000,57.2662000,55.1453000,59.0820000,-38.1190000,-10.4270000,9.1710000,0.000000,0,0,0
7.010,-0.5599000,-0.1178000,9.8371000,58.3801000,55.1910000,59.1278000,-38.0510000,-10.5310000,9.5230000,0.000000,0,0,0
7.020,-0.5347000,-0.1346000,9.8562000,59.6924000,55.0003000,59.2804000,-38.5870000,-10.6170000,8.5300000,0.000000,0,0,0
7.030,-0.5192000,-0.1394000,9.8790000,61.0809000,54.8019000,59.4330000,-38.3580000,-10.1700000,8.2390000,0.000000,0,0,0
7.040,-0.5156000,-0.1262000,9.9053000,62.3779000,54.8477000,59.4330000,-38.4430000,-10.4290000,8.8360000,0.000000,0,0,0
7.050,-0.5096000,-0.0987000,9.9340000,63.5223000,55.3589000,59.2346000,-38.3140000,-10.3570000,9.5810000,0.000000,0,0,0
7.060,-0.4845000,-0.0664000,9.9687000,64.5905000,56.2973000,58.8608000,-38.7300000,-10.7610000,9.1570000,0.000000,0,0,0
7.070,-0.4331000,-0.0365000,9.9998000,65.6586000,57.4188000,58.3420000,-38.3820000,-10.4830000,9.2860000,0.000000,0,0,0
7.080,-0.3697000,-0.0245000,10.0117000,66.5588000,58.1665000,57.8766000,-38.7230000,-10.9750000,9.1440000,0.000000,0,0,0
7.090,-0.3194000,-0.0293000,9.9962000,67.1082000,58.0215000,57.7469000,-38.4570000,-10.8160000,8.7110000,0.000000,0,0,0
7.100,-0.2991000,-0.0449000,9.9603000,67.1082000,57.0526000,58.0139000,-38.6250000,-10.8120000,8.8170000,0.000000,0,0,0
7.110,-0.3051000,-0.0664000,9.9184000,66.6504000,55.8929000,58.4793000,-38.6040000,-10.6980000,8.7830000,0.000000,0,0,0
7.120,-0.3326000,-0.0855000,9.8766000,65.9332000,55.0842000,58.9600000,-38.8400000,-10.8340000,9.3120000,0.000000,0,0,0
7.130,-0.3697000,-0.0975000,9.8419000,65.2084000,54.8325000,59.2499000,-38.9510000,-10.6580000,8.9200000,0.000000,0,0,0
7.140,-0.4079000,-0.1083000,9.8203000,64.6896000,55.0919000,59.3109000,-38.7970000,-10.9780000,9.0340000,0.000000,0,0,0
7.150,-0.4235000,-0.1190000,9.8120000,64.3997000,55.8090000,59.1812000,-38.6840000,-10.9870000,9.1110000,0.000000,0,0,0
7.160,-0.4091000,-0.1250000,9.8012000,64.2166000,56.8085000,58.9828000,-39.0190000,-10.8840000,9.0930000,0.000000,0,0,0
7.170,-0.3768000,-0.1274000,9.7928000,64.0030000,57.7240000,58.8226000,-38.9580000,-10.7670000,9.6280000,0.000000,0,0,0
7.180,-0.3421000,-0.1274000,9.7785000,63.6444000,58.3572000,58.7997000,-38.9420000,-10.8580000,9.3230000,0.000000,0,0,0
7.190,-0.3326000,-0.1274000,9.7510000,63.0646000,58.8303000,58.9828000,-39.1010000,-10.9970000,9.6200000,0.000000,0,0,0
7.200,-0.3553000,-0.1286000,9.7187000,62.3398000,59.4101000,59.3033000,-39.2240000,-11.0050000,9.8330000,0.000000,0,0,0
7.210,-0.3828000,-0.1298000,9.7031000,61.7828000,60.4706000,59.5474000,-39.3120000,-11.0360000,8.4420000,0.000000,0,0,0
7.220,-0.3852000,-0.1250000,9.7055000,61.6760000,62.0728000,59.5016000,-39.2760000,-11.1160000,9.3730000,0.000000,0,0,0
7.230,-0.3661000,-0.1286000,9.7222000,62.0270000,63.7665000,59.2270000,-39.4900000,-11.2230000,9.0710000,0.000000,0,0,0
7.240,-0.3338000,-0.1418000,9.7533000,62.7747000,64.8727000,58.9828000,-39.3920000,-11.0670000,8.8680000,0.000000,0,0,0
7.250,-0.2979000,-0.1453000,9.7833000,63.6749000,64.8956000,58.9752000,-39.3080000,-11.4850000,8.9430000,0.000000,0,0,0
7.260,-0.2716000,-0.1394000,9.7952000,64.2624000,63.8046000,59.3491000,-39.1590000,-11.2130000,9.2740000,0.000000,0,0,0
7.270,-0.2644000,-0.1298000,9.7797000,64.3311000,62.0575000,60.1349000,-39.3880000,-11.4720000,8.9390000,0.000000,0,0,0
7.280,-0.2847000,-0.1370000,9.7533000,63.9801000,60.3104000,61.1954000,-39.3410000,-11.0870000,8.9530000,0.000000,0,0,0
7.290,-0.3218000,-0.1729000,9.7294000,63.5223000,58.6090000,62.7365000,-39.5180000,-11.5150000,8.9130000,0.000000,0,0,0
7.300,-0.3278000,-0.1836000,9.7378000,63.5376000,58.2657000,63.2477000,-39.7330000,-11.5450000,8.7850000,0.000000,0,0,0
7.310,-0.3218000,-0.1824000,9.7749000,63.8580000,58.4183000,63.2629000,-39.7830000,-11.4810000,8.4660000,0.000000,0,0,0
7.320,-0.2919000,-0.1776000,9.8383000,64.3921000,58.6853000,62.9349000,-39.7510000,-11.2970000,8.6170000,0.000000,0,0,0
7.330,-0.2512000,-0.1729000,9.8885000,64.9109000,58.6395000,62.4619000,-39.7700000,-11.2230000,8.4840000,0.000000,0,0,0
7.340,-0.2201000,-0.1812000,9.9113000,65.1245000,58.1207000,62.0575000,-39.4790000,-11.4410000,8.8030000,0.000000,0,0,0
7.350,-0.2117000,-0.1956000,9.9208000,64.9796000,57.2815000,61.8973000,-39.8300000,-11.6000000,9.1520000,0.000000,0,0,0
7.360,-0.2285000,-0.2016000,9.9280000,64.4608000,56.3965000,61.9736000,-39.9660000,-11.5640000,9.2170000,0.000000,0,0,0
7.370,-0.2476000,-0.1944000,9.9424000,63.6826000,55.7632000,62.1414000,-39.7470000,-11.5670000,8.8220000,0.000000,0,0,0
7.380,-0.2536000,-0.1812000,9.9723000,62.9501000,55.5191000,62.3016000,-40.1130000,-11.4090000,8.9860000,0.000000,0,0,0
7.390,-0.2405000,-0.1609000,10.0034000,62.5153000,55.4657000,62.4695000,-39.9110000,-11.5440000,8.8840000,0.000000,0,0,0
7.400,-0.2010000,-0.1346000,10.0261000,62.3093000,55.2521000,62.5916000,-40.1650000,-11.6060000,8.4490000,0.000000,0,0,0
7.410,-0.1412000,-0.1130000,10.0369000,62.1719000,54.6875000,62.5839000,-40.0880000,-11.3120000,8.5470000,0.000000,0,0,0
7.420,-0.0861000,-0.1023000,10.0225000,61.9583000,53.6423000,62.4619000,-40.2030000,-11.4130000,8.1250000,0.000000,0,0,0
7.430,-0.0443000,-0.1023000,9.9818000,61.4624000,52.2308000,62.2330000,-39.8820000,-11.7090000,8.1350000,0.000000,0,0,0
7.440,-0.0287000,-0.1130000,9.9101000,60.5392000,50.7431000,61.8744000,-40.4720000,-11.9930000,7.8950000,0.000000,0,0,0
7.450,-0.0562000,-0.1262000,9.8179000,59.1583000,49.5682000,61.4395000,-40.1900000,-11.9750000,7.9010000,0.000000,0,0,0
7.460,-0.1184000,-0.1501000,9.7258000,57.5485000,49.1409000,60.9818000,-40.5210000,-11.8480000,8.0370000,0.000000,0,0,0
7.470,-0.1962000,-0.1896000,9.6385000,56.1981000,49.4843000,60.5316000,-40.2000000,-11.9430000,7.7160000,0.000000,0,0,0
7.480,-0.2500000,-0.2303000,9.5691000,55.4581000,50.1709000,60.2112000,-40.4480000,-12.2780000,7.6670000,0.000000,0,0,0
7.490,-0.2572000,-0.2494000,9.5260000,55.2750000,50.8194000,60.0891000,-40.2260000,-11.8610000,8.2350000,0.000000,0,0,0
7.500,-0.2369000,-0.2434000,9.5093000,55.4199000,51.3382000,60.1273000,-40.3790000,-11.6770000,7.7330000,0.000000,0,0,0
7.510,-0.2070000,-0.2267000,9.5165000,55.6946000,51.8417000,60.2570000,-40.5440000,-11.8570000,7.6080000,0.000000,0,0,0
7.520,-0.1711000,-0.2111000,9.5296000,56.0226000,52.4750000,60.3790000,-40.4440000,-12.1450000,7.4990000,0.000000,0,0,0
7.530,-0.1352000,-0.2183000,9.5356000,56.3583000,53.4286000,60.4172000,-40.1890000,-11.7300000,7.1300000,0.000000,0,0,0
7.540,-0.0921000,-0.2470000,9.5308000,56.6711000,54.6875000,60.4172000,-40.6170000,-11.7940000,7.2450000,0.000000,0,0,0
7.550,-0.0275000,-0.2781000,9.5320000,57.0068000,56.1981000,60.3638000,-40.2450000,-12.0810000,7.5070000,0.000000,0,0,0
7.560,0.0502000,-0.2973000,9.5380000,57.4417000,57.8613000,60.3409000,-40.2290000,-12.4540000,7.0300000,0.000000,0,0,0
7.570,0.1148000,-0.3033000,9.5476000,58.0521000,59.4254000,60.4324000,-40.1040000,-12.3070000,6.7700000,0.000000,0,0,0
7.580,0.1627000,-0.2985000,9.5703000,58.9371000,60.6308000,60.6537000,-40.6660000,-12.4110000,7.1040000,0.000000,0,0,0
7.590,0.1902000,-0.2853000,9.5811000,60.0739000,61.3708000,60.9360000,-40.2290000,-12.0660000,6.8920000,0.000000,0,0,0
7.600,0.1878000,-0.2710000,9.5595000,61.1725000,61.6913000,61.1801000,-40.5920000,-12.0420000,6.6480000,0.000000,0,0,0
7.610,0.1531000,-0.2662000,9.5165000,62.0270000,61.7142000,61.3556000,-40.2090000,-12.2520000,5.9960000,0.000000,0,0,0
7.620,0.1029000,-0.2769000,9.4758000,62.5763000,61.4853000,61.4014000,-40.5840000,-12.2270000,6.7580000,0.000000,0,0,0
7.630,0.0526000,-0.2997000,9.4567000,62.9883000,60.9970000,61.3403000,-40.1830000,-12.2700000,6.8400000,0.000000,0,0,0
7.640,0.0108000,-0.3260000,9.4555000,63.4766000,60.1730000,61.1877000,-40.4930000,-12.2650000,6.1710000,0.000000,0,0,0
7.650,-0.0036000,-0.3439000,9.4722000,64.1327000,58.8760000,61.0275000,-40.2310000,-12.3480000,6.5130000,0.000000,0,0,0
7.660,0.0167000,-0.3344000,9.4985000,64.8117000,57.4341000,60.9131000,-40.3950000,-12.2820000,6.6760000,0.000000,0,0,0
7.670,0.0479000,-0.3057000,9.5165000,65.1245000,56.3660000,60.8063000,-40.1500000,-12.2940000,6.3630000,0.000000,0,0,0
7.680,0.0790000,-0.2745000,9.5201000,64.8422000,56.1829000,60.6537000,-40.5290000,-12.2880000,6.4910000,0.000000,0,0,0
7.690,0.1232000,-0.2434000,9.4949000,63.9420000,57.1671000,60.3485000,-40.5900000,-12.4490000,5.9130000,0.000000,0,0,0
7.700,0.1854000,-0.2195000,9.4507000,62.5458000,59.2117000,59.8831000,-40.5380000,-12.5120000,6.6010000,0.000000,0,0,0
7.710,0.2417000,-0.2159000,9.3897000,60.9741000,61.7065000,59.2270000,-40.6790000,-12.2740000,6.5210000,0.000000,0,0,0
7.720,0.2656000,-0.2387000,9.3287000,59.6542000,63.6444000,58.4488000,-40.5720000,-12.3310000,6.0600000,0.000000,0,0,0
7.730,0.2560000,-0.2841000,9.2880000,58.9981000,64.4608000,57.7164000,-40.6430000,-12.4960000,7.1080000,0.000000,0,0,0
7.740,0.2237000,-0.3188000,9.2569000,59.0134000,64.2395000,57.1671000,-40.7510000,-12.5460000,6.7240000,0.000000,0,0,0
7.750,0.1782000,-0.3451000,9.2342000,59.2728000,63.5147000,56.8924000,-40.7370000,-12.3960000,6.6440000,0.000000,0,0,0
7.760,0.1340000,-0.3726000,9.2150000,59.4864000,62.6907000,57.0068000,-40.3920000,-12.4450000,6.3620000,0.000000,0,0,0
7.770,0.1077000,-0.3930000,9.1995000,59.5322000,61.8210000,57.4570000,-40.3920000,-12.5600000,6.4770000,0.000000,0,0,0
7.780,0.0993000,-0.4026000,9.1911000,59.4330000,60.9970000,58.1055000,-40.5270000,-12.5070000,5.9510000,0.000000,0,0,0
7.790,0.0981000,-0.3894000,9.1887000,59.3414000,60.2875000,58.7006000,-40.3280000,-12.6530000,5.8850000,0.000000,0,0,0
7.800,0.0897000,-0.3523000,9.2102000,59.4635000,59.8297000,59.0744000,-40.5280000,-12.4590000,6.5050000,0.000000,0,0,0
7.810,0.0742000,-0.2901000,9.2605000,59.9747000,59.8450000,59.1049000,-40.7010000,-12.2810000,6.8550000,0.000000,0,0,0
7.820,0.0502000,-0.2255000,9.3346000,60.9360000,60.5087000,58.7540000,-40.6170000,-12.5270000,6.8950000,0.000000,0,0,0
7.830,0.0263000,-0.1884000,9.4160000,62.3169000,61.6913000,58.2047000,-40.5620000,-12.4000000,6.6230000,0.000000,0,0,0
7.840,0.0215000,-0.1753000,9.4758000,63.8657000,63.0798000,57.7011000,-40.4100000,-12.5690000,6.3120000,0.000000,0,0,0
7.850,0.0359000,-0.1788000,9.5081000,65.1474000,64.5447000,57.3654000,-40.5450000,-12.4830000,6.8700000,0.000000,0,0,0
7.860,0.0490000,-0.2004000,9.5129000,66.0629000,65.9103000,57.1518000,-40.6450000,-12.2320000,6.4620000,0.000000,0,0,0
7.870,0.0562000,-0.2363000,9.5093000,66.7953000,66.8335000,57.0221000,-40.5070000,-12.3370000,6.3140000,0.000000,0,0,0
7.880,0.0550000,-0.2781000,9.5165000,67.6498000,67.2302000,57.0602000,-40.8650000,-12.3940000,6.4610000,0.000000,0,0,0
7.890,0.0395000,-0.3200000,9.5344000,68.8324000,66.9937000,57.3578000,-40.7990000,-12.3070000,5.8030000,0.000000,0,0,0
7.900,0.0108000,-0.3607000,9.5847000,71.1212000,65.3610000,58.6014000,-40.8560000,-12.4230000,6.2910000,0.000000,0,0,0
7.910,0.0024000,-0.3583000,9.6218000,72.6547000,63.7436000,59.9213000,-40.7650000,-12.3680000,6.0570000,0.000000,0,0,0
7.920,-0.0072000,-0.3296000,9.6421000,73.8831000,62.1643000,61.4624000,-40.8070000,-12.5890000,5.6060000,0.000000,0,0,0
7.930,-0.0215000,-0.2889000,9.6433000,74.6155000,60.9436000,62.9730000,-40.7530000,-12.2690000,6.7510000,0.000000,0,0,0
7.940,-0.0311000,-0.2482000,9.6421000,74.8596000,60.3790000,64.1479000,-40.5670000,-12.3600000,6.4670000,0.000000,0,0,0
7.950,-0.0407000,-0.2052000,9.6409000,74.7147000,60.7605000,64.7964000,-40.7690000,-12.4060000,6.3920000,0.000000,0,0,0
7.960,-0.0443000,-0.1633000,9.6373000,74.3179000,62.0346000,64.8727000,-40.6940000,-12.2380000,6.4680000,0.000000,0,0,0
7.970,-0.0335000,-0.1214000,9.6194000,73.7686000,63.7360000,64.5370000,-40.6350000,-12.1580000,6.0610000,0.000000,0,0,0
7.980,-0.0156000,-0.0784000,9.5859000,73.0438000,65.1321000,64.0640000,-40.6390000,-12.1390000,6.5260000,0.000000,0,0,0
7.990,0.0144000,-0.0341000,9.5488000,72.0673000,65.7043000,63.6673000,-40.4390000,-11.8880000,6.4920000,0.000000,0,0,0
8.000,0.0514000,-0.0030000,9.5332000,70.9152000,65.3992000,63.4460000,-40.8770000,-12.3850000,7.0930000,0.000000,0,0,0
8.010,0.0837000,0.0150000,9.5548000,69.8166000,64.6973000,63.4384000,-40.6200000,-12.2340000,6.1530000,0.000000,0,0,0
8.020,0.1101000,0.0281000,9.5954000,68.9697000,64.3005000,63.6749000,-40.5470000,-12.1690000,6.7120000,0.000000,0,0,0
8.030,0.1304000,0.0520000,9.6241000,68.4967000,64.6057000,64.1479000,-40.3850000,-12.0860000,6.6750000,0.000000,0,0,0
8.040,0.1495000,0.0987000,9.6301000,68.5730000,65.4984000,64.8270000,-40.3970000,-12.4350000,6.7560000,0.000000,0,0,0
8.050,0.1794000,0.1418000,9.6241000,69.3436000,66.6046000,65.6662000,-40.3460000,-12.4350000,6.2560000,0.000000,0,0,0
8.060,0.2297000,0.1669000,9.6098000,70.7016000,67.2150000,66.6733000,-40.3090000,-12.3900000,6.9720000,0.000000,0,0,0
8.070,0.3015000,0.1884000,9.5906000,72.2275000,66.8793000,67.8253000,-40.2510000,-12.7490000,6.2310000,0.000000,0,0,0
8.080,0.3816000,0.2207000,9.5500000,73.3109000,65.5441000,68.9621000,-40.4170000,-12.5200000,6.5560000,0.000000,0,0,0
8.090,0.4307000,0.2542000,9.4878000,73.5016000,63.4613000,69.7937000,-40.2740000,-12.6420000,7.0470000,0.000000,0,0,0
8.100,0.4151000,0.2638000,9.4160000,72.7997000,61.1267000,70.0455000,-40.3300000,-12.6690000,6.2990000,0.000000,0,0,0
8.110,0.3409000,0.2315000,9.3346000,71.5790000,58.9905000,69.5572000,-40.2680000,-12.5210000,6.2350000,0.000000,0,0,0
8.120,0.2225000,0.1717000,9.2617000,70.2515000,57.5104000,68.5120000,-40.3500000,-12.6390000,6.4160000,0.000000,0,0,0
8.130,0.0957000,0.1166000,9.2162000,69.0613000,56.9839000,67.2226000,-40.3010000,-12.4970000,6.4650000,0.000000,0,0,0
8.140,-0.0096000,0.0724000,9.2102000,68.2526000,57.3654000,65.9561000,-40.4170000,-12.4980000,7.0340000,0.000000,0,0,0
8.150,-0.0670000,0.0389000,9.2246000,68.0008000,57.9605000,64.9109000,-40.1040000,-12.4860000,6.3050000,0.000000,0,0,0
8.160,-0.0622000,0.0173000,9.2401000,68.1076000,57.7774000,64.3539000,-40.2570000,-12.4970000,7.0310000,0.000000,0,0,0
8.170,-0.0012000,0.0173000,9.2569000,68.0771000,56.2439000,64.3921000,-40.1990000,-12.4230000,6.6710000,0.000000,0,0,0
8.180,0.0658000,0.0461000,9.2880000,67.5583000,53.8101000,64.7888000,-40.2200000,-12.6160000,7.1830000,0.000000,0,0,0
8.190,0.0885000,0.0867000,9.3418000,66.5741000,51.4832000,65.1093000,-40.3590000,-12.5980000,6.9150000,0.000000,0,0,0
8.200,0.0610000,0.1238000,9.4184000,65.5899000,50.2167000,65.0635000,-40.4040000,-12.4500000,6.4640000,0.000000,0,0,0
8.210,0.0120000,0.1453000,9.5057000,65.1016000,50.3464000,64.5523000,-40.3710000,-12.7120000,6.4830000,0.000000,0,0,0
8.220,-0.0299000,0.1549000,9.5787000,65.2618000,51.4908000,63.6673000,-40.6340000,-12.5150000,6.2780000,0.000000,0,0,0
8.230,-0.0598000,0.1418000,9.6218000,65.8264000,53.0090000,62.5839000,-40.6230000,-12.3390000,6.1600000,0.000000,0,0,0
8.240,-0.0849000,0.1071000,9.6373000,66.4597000,54.4510000,61.3403000,-40.8400000,-12.2990000,6.1740000,0.000000,0,0,0
8.250,-0.0921000,0.0604000,9.6373000,66.6809000,55.8929000,60.0204000,-40.6030000,-12.4550000,6.4900000,0.000000,0,0,0
8.260,-0.0622000,-0.0006000,9.6529000,66.0477000,57.4722000,58.8684000,-40.8730000,-12.6770000,6.6640000,0.000000,0,0,0
8.270,0.0203000,-0.0628000,9.7091000,64.5752000,59.0668000,58.2733000,-40.6950000,-12.4550000,7.1820000,0.000000,0,0,0
8.280,0.1448000,-0.1023000,9.7928000,62.6373000,60.5927000,58.3572000,-40.6740000,-12.6420000,7.2030000,0.000000,0,0,0
8.290,0.2740000,-0.1178000,9.8754000,60.7300000,62.0651000,58.9828000,-40.3360000,-12.3540000,6.9820000,0.000000,0,0,0
8.300,0.3780000,-0.1035000,9.9232000,59.0744000,63.5757000,59.6771000,-40.5120000,-12.5430000,7.1870000,0.000000,0,0,0
8.310,0.4331000,-0.0891000,9.9292000,57.5943000,65.1550000,59.9518000,-40.5490000,-12.3860000,7.0770000,0.000000,0,0,0
8.320,0.4390000,-0.0843000,9.8945000,56.2286000,66.6656000,59.6313000,-40.4610000,-12.2260000,7.0790000,0.000000,0,0,0
8.330,0.4295000,-0.0915000,9.8443000,55.0690000,67.2989000,59.0515000,-40.6430000,-12.6030000,6.6260000,0.000000,0,0,0
8.340,0.4235000,-0.0867000,9.8251000,54.3518000,66.4673000,58.5175000,-40.4380000,-12.6490000,6.2030000,0.000000,0,0,0
8.350,0.4187000,-0.0640000,9.8514000,54.2984000,64.2929000,58.1589000,-40.6210000,-12.5010000,6.8770000,0.000000,0,0,0
8.360,0.4127000,-0.0269000,9.9077000,54.8401000,61.2946000,57.9910000,-40.5020000,-12.5120000,6.3280000,0.000000,0,0,0
8.370,0.4008000,0.0185000,9.9747000,55.6793000,58.2199000,57.9071000,-40.4800000,-12.2960000,6.4430000,0.000000,0,0,0
8.380,0.3744000,0.0496000,10.0177000,56.4804000,55.8853000,57.7927000,-40.8010000,-12.6530000,6.8910000,0.000000,0,0,0
8.390,0.3433000,0.0461000,10.0070000,57.1213000,54.6494000,57.7011000,-40.8100000,-12.5130000,6.1090000,0.000000,0,0,0
8.400,0.3218000,0.0221000,9.9376000,57.5714000,54.1534000,57.7621000,-40.8320000,-12.4910000,6.3400000,0.000000,0,0,0
8.410,0.3278000,0.0185000,9.8550000,57.8003000,53.5965000,58.0292000,-40.5640000,-12.6890000,6.0370000,0.000000,0,0,0
8.420,0.3433000,0.0461000,9.8072000,57.9071000,52.5131000,58.3038000,-40.8880000,-12.9580000,6.5510000,0.000000,0,0,0
8.430,0.3362000,0.0807000,9.7928000,58.0521000,51.0559000,58.3572000,-40.7600000,-12.4990000,6.1230000,0.000000,0,0,0
8.440,0.2943000,0.1023000,9.7952000,58.2886000,49.8352000,58.2199000,-40.8570000,-12.4150000,5.8440000,0.000000,0,0,0
8.450,0.2440000,0.0999000,9.7988000,58.4869000,49.5453000,58.0139000,-40.7910000,-12.5000000,5.2290000,0.000000,0,0,0
8.460,0.2129000,0.0819000,9.7833000,58.4946000,50.5447000,57.8461000,-41.0110000,-12.7000000,5.7320000,0.000000,0,0,0
8.470,0.2117000,0.0580000,9.7354000,58.2733000,52.7649000,57.7164000,-40.8360000,-12.7040000,5.7120000,0.000000,0,0,0
8.480,0.2488000,0.0401000,9.6493000,57.8842000,55.6335000,57.6630000,-40.9080000,-12.6540000,6.1070000,0.000000,0,0,0
8.490,0.3242000,0.0496000,9.5380000,57.4112000,58.2275000,57.8232000,-41.2290000,-12.5240000,5.8310000,0.000000,0,0,0
8.500,0.4654000,0.1095000,9.4040000,57.0297000,59.2270000,58.8684000,-40.9750000,-12.8210000,5.8600000,0.000000,0,0,0
8.510,0.5407000,0.1645000,9.3622000,57.5104000,57.5027000,59.9747000,-40.9620000,-12.6730000,6.3730000,0.000000,0,0,0
8.520,0.5814000,0.2207000,9.3466000,58.6319000,54.9469000,60.9741000,-40.9840000,-12.6230000,6.7570000,0.000000,0,0,0
8.530,0.5790000,0.2626000,9.3430000,60.0433000,53.0701000,61.4395000,-40.9510000,-12.6320000,5.9480000,0.000000,0,0,0
8.540,0.5623000,0.2734000,9.3334000,61.4014000,52.6657000,61.2869000,-41.1200000,-12.7810000,5.3320000,0.000000,0,0,0
8.550,0.5563000,0.2590000,9.3000000,62.4619000,53.5965000,60.6613000,-40.9460000,-12.8070000,5.8000000,0.000000,0,0,0
8.560,0.5790000,0.2387000,9.2425000,62.9578000,55.1224000,59.8602000,-41.2250000,-12.6850000,5.3750000,0.000000,0,0,0
8.570,0.6125000,0.2303000,9.1743000,62.7365000,56.3660000,59.1812000,-41.3650000,-12.8620000,5.6500000,0.000000,0,0,0
8.580,0.6245000,0.2111000,9.1157000,61.9812000,56.9687000,58.7692000,-41.2940000,-12.5180000,5.4360000,0.000000,0,0,0
8.590,0.6149000,0.1693000,9.0750000,61.1115000,56.9916000,58.6243000,-41.1560000,-12.6800000,5.4650000,0.000000,0,0,0
8.600,0.6017000,0.1142000,9.0667000,60.4172000,56.8619000,58.7463000,-41.4390000,-12.6480000,5.4940000,0.000000,0,0,0
8.610,0.5946000,0.0604000,9.0679000,59.9518000,56.9534000,59.1202000,-41.2240000,-12.8420000,5.3070000,0.000000,0,0,0
8.620,0.5898000,0.0161000,9.0607000,59.5627000,57.3425000,59.5779000,-41.0660000,-12.9990000,4.9860000,0.000000,0,0,0
8.630,0.5946000,-0.0161000,9.0463000,59.1965000,57.7621000,59.9976000,-41.2770000,-12.5000000,5.2010000,0.000000,0,0,0
8.640,0.6316000,-0.0329000,9.0320000,58.8760000,57.7774000,60.3256000,-40.9410000,-13.1690000,4.6840000,0.000000,0,0,0
8.650,0.7022000,-0.0269000,9.0320000,58.6090000,57.1365000,60.5164000,-41.0910000,-12.4710000,5.1220000,0.000000,0,0,0
8.660,0.7848000,-0.0066000,9.0451000,58.4183000,55.8624000,60.4858000,-41.3960000,-12.9570000,5.2190000,0.000000,0,0,0
8.670,0.8542000,0.0138000,9.0703000,58.2657000,54.2755000,60.2798000,-41.3030000,-12.9850000,4.9740000,0.000000,0,0,0
8.680,0.8757000,0.0173000,9.1062000,58.2199000,52.8564000,60.0357000,-41.2620000,-12.9950000,4.9720000,0.000000,0,0,0
8.690,0.8338000,0.0042000,9.1504000,58.3954000,51.7807000,59.9747000,-41.1020000,-12.7840000,5.0280000,0.000000,0,0,0
8.700,0.7441000,-0.0185000,9.1995000,58.9600000,51.2009000,60.2112000,-41.5120000,-12.7000000,4.5670000,0.000000,0,0,0
8.710,0.6615000,-0.0425000,9.2365000,59.9670000,51.1551000,60.7224000,-41.5310000,-13.0140000,4.6230000,0.000000,0,0,0
8.720,0.6376000,-0.0461000,9.2605000,61.1496000,51.4145000,61.4014000,-41.4480000,-12.7660000,4.4020000,0.000000,0,0,0
8.730,0.6783000,-0.0329000,9.2736000,62.1109000,51.6205000,62.1338000,-41.4030000,-13.0080000,4.8290000,0.000000,0,0,0
8.740,0.7465000,-0.0054000,9.2832000,62.6526000,51.5366000,62.7060000,-41.4370000,-12.6100000,4.5820000,0.000000,0,0,0
8.750,0.7991000,0.0197000,9.2844000,62.7365000,51.2009000,63.0112000,-41.3370000,-12.9630000,4.3790000,0.000000,0,0,0
8.760,0.8087000,0.0221000,9.2916000,62.5687000,50.6744000,63.2095000,-41.5330000,-13.0300000,4.8170000,0.000000,0,0,0
8.770,0.7824000,0.0090000,9.3095000,62.5458000,50.3616000,63.3621000,-41.5610000,-12.8000000,4.4760000,0.000000,0,0,0
8.780,0.7620000,-0.0150000,9.3215000,62.8281000,50.7431000,63.3545000,-41.4240000,-12.8850000,4.2910000,0.000000,0,0,0
8.790,0.7967000,-0.0532000,9.3179000,63.2858000,51.8341000,63.2782000,-41.4770000,-13.0330000,4.3170000,0.000000,0,0,0
8.800,0.8960000,-0.0903000,9.3035000,63.6063000,53.1387000,63.2706000,-41.6810000,-13.2010000,4.3660000,0.000000,0,0,0
8.810,1.0156000,-0.1190000,9.2784000,63.5147000,53.9780000,63.4689000,-41.6480000,-12.8720000,4.5040000,0.000000,0,0,0
8.820,1.1054000,-0.1382000,9.2425000,63.0188000,53.8864000,63.9114000,-41.7560000,-12.9020000,4.1560000,0.000000,0,0,0
8.830,1.1281000,-0.1406000,9.2042000,62.3169000,53.0548000,64.3463000,-41.7190000,-12.8660000,4.2110000,0.000000,0,0,0
8.840,1.0814000,-0.1310000,9.1731000,61.5997000,52.2232000,64.3768000,-41.7560000,-13.3410000,3.6320000,0.000000,0,0,0
8.850,0.9917000,-0.1310000,9.1528000,61.0275000,52.2461000,63.7970000,-41.6490000,-13.1250000,4.0350000,0.000000,0,0,0
8.860,0.9152000,-0.1465000,9.1492000,60.7071000,53.2150000,62.8357000,-41.6560000,-13.1830000,4.0860000,0.000000,0,0,0
8.870,0.8769000,-0.1753000,9.1612000,60.7834000,54.8096000,61.8210000,-41.6700000,-13.0110000,4.1900000,0.000000,0,0,0
8.880,0.8649000,-0.2040000,9.1911000,61.3403000,56.8314000,61.0352000,-41.9340000,-13.0680000,4.2550000,0.000000,0,0,0
8.890,0.8733000,-0.2195000,9.2377000,62.2787000,58.9752000,60.6308000,-41.5190000,-12.8440000,3.6950000,0.000000,0,0,0
8.900,0.8900000,-0.2159000,9.3035000,63.4384000,60.7986000,60.6232000,-41.7170000,-12.7910000,3.8410000,0.000000,0,0,0
8.910,0.9032000,-0.1920000,9.3945000,64.6820000,61.9278000,60.8444000,-41.5440000,-13.1070000,3.7730000,0.000000,0,0,0
8.920,0.9092000,-0.1609000,9.4973000,65.8264000,62.2025000,61.1343000,-41.8200000,-12.9160000,4.0200000,0.000000,0,0,0
8.930,0.9164000,-0.1334000,9.5918000,66.6656000,61.6531000,61.4624000,-41.8210000,-12.7880000,4.4220000,0.000000,0,0,0
8.940,0.9355000,-0.1107000,9.6732000,67.0090000,60.5621000,61.7447000,-41.7870000,-12.9840000,4.6810000,0.000000,0,0,0
8.950,0.9606000,-0.0951000,9.7426000,66.7725000,59.5856000,61.7371000,-41.5490000,-12.9610000,4.5330000,0.000000,0,0,0
8.960,0.9929000,-0.0879000,9.8191000,66.1469000,59.2957000,61.3480000,-41.6570000,-13.0540000,4.7950000,0.000000,0,0,0
8.970,1.0264000,-0.0760000,9.8921000,65.3687000,59.7916000,60.7376000,-41.2550000,-12.8670000,4.2710000,0.000000,0,0,0
8.980,1.0779000,-0.0437000,9.9507000,64.5523000,60.5698000,60.1044000,-41.4160000,-13.2080000,4.5840000,0.000000,0,0,0
8.990,1.1365000,0.0078000,9.9782000,63.7817000,60.9589000,59.5779000,-41.2450000,-12.8840000,5.2120000,0.000000,0,0,0
9.000,1.1867000,0.0652000,9.9639000,63.0264000,60.3943000,59.2194000,-41.2620000,-12.8160000,4.5780000,0.000000,0,0,0
9.010,1.2274000,0.1178000,9.9148000,62.2406000,58.8074000,59.0057000,-41.5650000,-13.0260000,4.7820000,0.000000,0,0,0
9.020,1.2501000,0.1561000,9.8526000,61.4243000,56.8237000,58.7082000,-41.6340000,-13.0020000,4.4430000,0.000000,0,0,0
9.030,1.2585000,0.1465000,9.7952000,60.7147000,55.1910000,58.2581000,-41.5970000,-12.9590000,4.3440000,0.000000,0,0,0
9.040,1.2525000,0.0879000,9.7438000,60.3714000,54.3671000,57.8003000,-41.8830000,-12.8800000,3.9580000,0.000000,0,0,0
9.050,1.2394000,0.0018000,9.6780000,60.5698000,54.3976000,57.5333000,-41.7260000,-12.6710000,3.8830000,0.000000,0,0,0
9.060,1.2346000,-0.0652000,9.5799000,61.2030000,55.1453000,57.4875000,-41.7510000,-13.0840000,4.3980000,0.000000,0,0,0
9.070,1.2537000,-0.0975000,9.4507000,61.9812000,56.2668000,57.5027000,-42.0410000,-13.0230000,4.3560000,0.000000,0,0,0
9.080,1.2920000,-0.1119000,9.2940000,62.6144000,57.4646000,57.4493000,-41.8410000,-12.9230000,3.9540000,0.000000,0,0,0
9.090,1.3327000,-0.1250000,9.1456000,62.9120000,58.4106000,57.3654000,-41.8230000,-13.0780000,3.7420000,0.000000,0,0,0
9.100,1.3482000,-0.1406000,9.0583000,62.9196000,59.0973000,57.3578000,-41.8760000,-12.9800000,4.2360000,0.000000,0,0,0
9.110,1.2968000,-0.1442000,9.0284000,62.7975000,60.5316000,57.4112000,-41.7550000,-12.8140000,4.2890000,0.000000,0,0,0
9.120,1.2190000,-0.1549000,9.0643000,62.8128000,62.1414000,57.5790000,-41.9620000,-13.2400000,3.7290000,0.000000,0,0,0
9.130,1.1401000,-0.1681000,9.1157000,63.0493000,64.1251000,57.8766000,-41.9230000,-13.0920000,4.0970000,0.000000,0,0,0
9.140,1.1102000,-0.1932000,9.1456000,63.3926000,66.0706000,58.5709000,-41.9060000,-12.7220000,4.8420000,0.000000,0,0,0
9.150,1.1700000,-0.2291000,9.1564000,63.5452000,67.2607000,59.8602000,-41.6320000,-12.9650000,4.4420000,0.000000,0,0,0
9.160,1.3087000,-0.2399000,9.1959000,63.4613000,67.3370000,61.5387000,-41.8740000,-12.6610000,3.9350000,0.000000,0,0,0
9.170,1.4547000,-0.2064000,9.2677000,63.3850000,66.6122000,62.9196000,-41.9900000,-12.7640000,4.0300000,0.000000,0,0,0
9.180,1.5061000,-0.1501000,9.3167000,63.4689000,65.7120000,63.2782000,-42.0220000,-12.8110000,4.0610000,0.000000,0,0,0
9.190,1.4427000,-0.1083000,9.3131000,63.7741000,64.9719000,62.7213000,-41.8190000,-12.9430000,4.5610000,0.000000,0,0,0
9.200,1.2944000,-0.0939000,9.2485000,64.3768000,64.3616000,61.6913000,-42.0070000,-12.9240000,4.1110000,0.000000,0,0,0
9.210,1.1305000,-0.0999000,9.1516000,65.2847000,63.9191000,60.7758000,-41.8400000,-12.7360000,4.2280000,0.000000,0,0,0
9.220,1.0360000,-0.1166000,9.0727000,66.0248000,63.6673000,60.3867000,-42.0510000,-12.9260000,4.2090000,0.000000,0,0,0
9.230,1.0372000,-0.1477000,9.0320000,66.1621000,63.5605000,60.7147000,-41.6430000,-12.7310000,4.3700000,0.000000,0,0,0
9.240,1.0874000,-0.1776000,9.0475000,65.5518000,63.3087000,61.5845000,-41.7940000,-12.7820000,4.0630000,0.000000,0,0,0
9.250,1.1018000,-0.1884000,9.1217000,64.3234000,62.9501000,62.3322000,-41.6450000,-12.8490000,4.3700000,0.000000,0,0,0
9.260,1.0551000,-0.1788000,9.2246000,62.9272000,63.0646000,62.2482000,-41.9260000,-12.6280000,3.2250000,0.000000,0,0,0
9.270,0.9762000,-0.1776000,9.3203000,61.6913000,63.6368000,61.3708000,-41.7670000,-12.6980000,3.8780000,0.000000,0,0,0
9.280,0.9499000,-0.1705000,9.4184000,60.5850000,63.9343000,60.2493000,-41.7110000,-12.7060000,4.3600000,0.000000,0,0,0
9.290,1.0312000,-0.1346000,9.5332000,59.3033000,63.2629000,59.3567000,-41.6910000,-12.5500000,4.2110000,0.000000,0,0,0
9.300,1.1987000,-0.0664000,9.6840000,57.6019000,61.4166000,58.8074000,-41.8470000,-12.9280000,3.8350000,0.000000,0,0,0
9.310,1.3458000,0.0018000,9.8467000,55.7404000,58.9066000,58.4717000,-41.5670000,-12.8560000,4.1450000,0.000000,0,0,0
9.320,1.4152000,0.0568000,9.9902000,54.2679000,56.7398000,58.1665000,-41.8510000,-12.8330000,3.6420000,0.000000,0,0,0
9.330,1.3769000,0.0855000,10.0680000,53.7262000,55.7861000,57.7621000,-41.6960000,-12.7630000,3.7980000,0.000000,0,0,0
9.340,1.2525000,0.0772000,10.0608000,54.4510000,56.1295000,57.5180000,-42.0540000,-12.8640000,4.3080000,0.000000,0,0,0
9.350,1.1125000,0.0305000,9.9627000,56.4651000,57.3196000,57.8384000,-41.8410000,-12.6630000,4.0940000,0.000000,0,0,0
9.360,1.0372000,-0.0317000,9.8144000,59.1431000,58.5556000,58.8913000,-41.8120000,-13.0370000,4.6420000,0.000000,0,0,0
9.370,1.0850000,-0.0807000,9.7007000,61.7752000,59.3338000,60.3104000,-41.7630000,-13.1170000,4.2650000,0.000000,0,0,0
9.380,1.2334000,-0.1071000,9.6576000,64.2014000,59.7992000,61.4548000,-41.5390000,-12.7910000,4.6130000,0.000000,0,0,0
9.390,1.3937000,-0.1095000,9.6564000,66.3757000,59.9060000,61.8820000,-41.9980000,-12.6860000,4.2080000,0.000000,0,0,0
9.400,1.4930000,-0.0915000,9.6529000,68.1839000,59.6390000,61.5540000,-42.0360000,-12.7810000,4.4130000,0.000000,0,0,0
9.410,1.4870000,-0.0604000,9.6110000,69.4656000,59.1736000,60.8063000,-42.2350000,-12.6220000,4.3200000,0.000000,0,0,0
9.420,1.4068000,-0.0484000,9.5189000,70.1370000,58.7082000,60.1730000,-42.0340000,-12.6140000,4.3800000,0.000000,0,0,0
9.430,1.3004000,-0.0760000,9.3825000,70.2438000,58.2428000,60.1578000,-41.9720000,-12.6600000,3.9720000,0.000000,0,0,0
9.440,1.2142000,-0.1262000,9.2354000,70.0073000,57.8079000,60.7529000,-42.1910000,-12.7870000,3.6710000,0.000000,0,0,0
9.450,1.1736000,-0.1609000,9.1373000,69.6564000,57.7393000,61.4624000,-42.1050000,-12.8230000,4.1980000,0.000000,0,0,0
9.460,1.1688000,-0.1753000,9.1085000,69.2444000,58.4717000,61.6455000,-41.8630000,-12.5850000,3.9030000,0.000000,0,0,0
9.470,1.1676000,-0.1920000,9.1157000,68.6493000,60.2417000,61.1115000,-41.8580000,-12.5240000,4.4890000,0.000000,0,0,0
9.480,1.1724000,-0.2183000,9.1325000,67.7719000,62.5916000,60.3256000,-42.0100000,-12.5460000,4.3980000,0.000000,0,0,0
9.490,1.1891000,-0.2422000,9.1528000,66.6199000,64.8727000,59.7687000,-41.5860000,-12.7600000,3.9520000,0.000000,0,0,0
9.500,1.2142000,-0.2578000,9.1708000,65.4144000,66.5131000,59.7153000,-41.9540000,-12.4190000,4.0500000,0.000000,0,0,0
9.510,1.2358000,-0.2291000,9.1791000,64.3387000,67.4515000,59.9976000,-41.8000000,-12.3070000,3.8380000,0.000000,0,0,0
9.520,1.2441000,-0.1501000,9.1815000,63.3469000,68.1229000,60.1807000,-42.0470000,-12.7420000,4.2460000,0.000000,0,0,0
9.530,1.2525000,-0.0461000,9.1731000,62.2864000,68.8477000,60.0815000,-41.8260000,-12.5420000,4.2770000,0.000000,0,0,0
9.540,1.2573000,0.0473000,9.1684000,61.0657000,69.3588000,59.8907000,-41.8030000,-12.4030000,4.3020000,0.000000,0,0,0
9.550,1.2597000,0.1083000,9.2114000,59.7610000,69.6869000,59.8526000,-41.9120000,-12.3970000,4.0930000,0.000000,0,0,0
9.560,1.2429000,0.1705000,9.3418000,58.5556000,70.7397000,59.7305000,-41.7450000,-12.5690000,4.6430000,0.000000,0,0,0
9.570,1.3422000,0.2434000,9.6959000,57.8003000,81.3828000,57.0068000,-41.5560000,-12.8450000,4.3780000,0.000000,0,0,0
9.580,1.2669000,0.1334000,9.6624000,57.4265000,93.2693000,54.4510000,-41.6320000,-12.4540000,4.7670000,0.000000,0,0,0
9.590,1.1903000,0.0353000,9.6253000,57.2586000,96.1838000,53.3218000,-41.6990000,-12.4860000,4.7410000,0.000000,0,0,0
9.600,1.1580000,-0.0185000,9.6038000,57.4188000,93.1625000,53.1845000,-41.5840000,-12.7090000,4.7770000,0.000000,0,0,0
9.610,1.1173000,-0.0461000,9.5835000,57.7545000,87.4481000,53.9856000,-41.5330000,-12.5050000,4.4450000,0.000000,0,0,0
9.620,1.0551000,-0.0831000,9.5655000,58.0978000,80.7037000,55.5878000,-41.5290000,-12.5240000,4.8500000,0.000000,0,0,0
9.630,0.9893000,-0.1250000,9.5703000,58.4564000,74.1425000,57.7698000,-41.7500000,-12.4440000,4.1780000,0.000000,0,0,0
9.640,0.9211000,-0.1585000,9.5691000,58.8684000,68.6569000,60.0662000,-42.0110000,-12.8500000,4.2630000,0.000000,0,0,0
9.650,0.8530000,-0.1549000,9.5308000,59.1812000,64.6896000,62.0117000,-41.8230000,-12.5240000,4.7160000,0.000000,0,0,0
9.660,0.8051000,-0.0975000,9.4447000,59.2804000,62.9807000,62.9959000,-41.6520000,-12.3520000,4.4410000,0.000000,0,0,0
9.670,0.7967000,-0.0652000,9.2688000,59.1812000,63.5529000,63.0341000,-41.4370000,-12.7330000,4.7010000,0.000000,0,0,0
9.680,0.8506000,-0.0867000,9.0236000,59.1888000,64.8499000,62.9196000,-41.5250000,-13.0090000,4.8230000,0.000000,0,0,0
9.690,0.9869000,-0.1585000,8.8011000,60.2570000,65.9866000,63.0646000,-41.5360000,-12.8470000,3.7770000,0.000000,0,0,0
9.700,1.0444000,-0.1932000,8.7915000,61.5845000,66.3757000,62.9959000,-41.3150000,-12.7750000,4.2530000,0.000000,0,0,0
9.710,1.0575000,-0.1992000,8.8633000,62.6984000,66.9937000,62.2864000,-41.3880000,-12.6630000,4.0360000,0.000000,0,0,0
9.720,1.0204000,-0.1920000,9.0045000,63.0569000,67.6651000,61.0504000,-41.5790000,-12.5090000,4.7540000,0.000000,0,0,0
9.730,0.9391000,-0.1812000,9.1839000,62.6068000,67.7872000,59.7382000,-41.5620000,-12.8450000,4.4140000,0.000000,0,0,0
9.740,0.8278000,-0.1657000,9.3705000,61.3022000,66.8793000,58.8837000,-41.7190000,-12.9950000,4.7310000,0.000000,0,0,0
9.750,0.6771000,-0.1418000,9.5452000,59.2346000,65.0024000,58.6090000,-41.5140000,-12.5380000,3.5830000,0.000000,0,0,0
9.760,0.4989000,-0.1202000,9.7175000,57.1136000,63.0417000,58.3572000,-41.6490000,-12.8170000,4.1400000,0.000000,0,0,0
9.770,0.3242000,-0.1322000,9.8813000,56.0608000,62.3016000,57.6630000,-41.7790000,-12.5440000,4.0280000,0.000000,0,0,0
9.780,0.1842000,-0.1800000,10.0321000,56.6025000,63.0951000,56.7856000,-41.4490000,-12.4710000,4.1070000,0.000000,0,0,0
9.790,0.1113000,-0.2195000,10.1732000,58.5098000,64.7964000,56.2973000,-41.4800000,-12.7540000,4.5770000,0.000000,0,0,0
9.800,0.1400000,-0.1908000,10.2965000,60.9741000,66.6962000,56.5567000,-41.7960000,-12.7340000,4.2490000,0.000000,0,0,0
9.810,0.2476000,-0.1166000,10.3778000,62.9883000,68.0847000,57.5562000,-41.7530000,-12.5340000,4.5200000,0.000000,0,0,0
9.820,0.4043000,-0.0401000,10.3958000,64.1556000,68.4052000,59.1202000,-41.6560000,-12.7160000,4.4430000,0.000000,0,0,0
9.830,0.5742000,0.0257000,10.3587000,64.6896000,67.5049000,60.7986000,-41.5410000,-12.7290000,4.5400000,0.000000,0,0,0
9.840,0.7345000,0.0819000,10.2761000,65.0635000,65.4449000,62.1490000,-41.6070000,-12.6240000,4.5900000,0.000000,0,0,0
9.850,0.8637000,0.1178000,10.1589000,65.7654000,62.6144000,62.9044000,-41.7290000,-12.4510000,4.8660000,0.000000,0,0,0
9.860,0.9403000,0.1250000,9.9986000,66.9632000,59.7153000,62.9730000,-41.4040000,-12.5410000,5.0600000,0.000000,0,0,0
9.870,0.9654000,0.0951000,9.7809000,68.5196000,57.4417000,62.5153000,-41.6900000,-12.7050000,4.9380000,0.000000,0,0,0
9.880,0.9630000,0.0484000,9.5332000,70.0684000,56.2973000,61.8820000,-41.6100000,-12.5460000,5.0140000,0.000000,0,0,0
9.890,0.9439000,-0.0018000,9.3131000,70.9991000,55.8624000,61.4853000,-41.4870000,-12.6610000,5.0940000,0.000000,0,0,0
9.900,0.9044000,-0.0413000,9.1743000,71.0526000,55.4276000,61.5845000,-41.4710000,-12.4660000,4.7850000,0.000000,0,0,0
9.910,0.8565000,-0.0592000,9.1253000,70.4575000,54.6646000,62.0270000,-41.6570000,-12.4360000,4.4770000,0.000000,0,0,0
9.920,0.8302000,-0.0508000,9.1313000,69.4885000,53.8177000,62.3093000,-41.4980000,-12.5850000,4.8260000,0.000000,0,0,0
9.930,0.8374000,-0.0257000,9.1552000,68.2220000,53.2455000,62.0346000,-41.4900000,-12.3390000,4.8830000,0.000000,0,0,0
9.940,0.8661000,0.0078000,9.1636000,66.7801000,53.1998000,61.1343000,-41.6410000,-12.8310000,4.2840000,0.000000,0,0,0
9.950,0.8960000,0.0269000,9.1373000,65.3381000,54.0237000,59.8373000,-41.3640000,-12.4220000,4.8480000,0.000000,0,0,0
9.960,0.9271000,0.0293000,9.0691000,64.1251000,55.8014000,58.5861000,-41.5970000,-12.3330000,4.0080000,0.000000,0,0,0
9.970,0.9810000,0.0161000,8.9770000,63.3926000,58.2581000,57.7850000,-41.6490000,-12.4140000,4.3930000,0.000000,0,0,0
9.980,1.0539000,-0.0090000,8.8824000,63.3698000,60.6842000,57.7469000,-41.6450000,-12.3520000,5.3380000,0.000000,0,0,0
9.990,1.1305000,-0.0245000,8.8059000,64.1251000,62.3322000,58.5327000,-41.4930000,-12.0780000,4.6310000,0.000000,0,0,0
10.000,1.2047000,-0.0197000,8.7473000,65.3915000,62.9959000,59.7839000,-41.5920000,-12.7100000,4.3570000,0.000000,0,0,0
10.010,1.2561000,-0.0161000,8.7126000,66.6809000,62.8128000,60.9970000,-41.3910000,-11.8820000,4.7290000,0.000000,0,0,0
10.020,1.2740000,-0.0197000,8.7281000,67.5659000,62.2559000,61.7828000,-41.6840000,-12.2050000,4.5580000,0.000000,0,0,0
10.030,1.2693000,-0.0126000,8.8095000,67.8482000,62.1262000,61.9659000,-41.5950000,-12.3090000,4.5610000,0.000000,0,0,0
10.040,1.2489000,-0.0030000,8.9255000,67.6193000,62.8510000,61.7371000,-42.0310000,-12.4390000,4.5240000,0.000000,0,0,0
10.050,1.2071000,-0.0090000,9.0224000,67.2302000,64.2090000,61.5692000,-41.9340000,-12.2990000,4.6350000,0.000000,0,0,0
10.060,1.1401000,-0.0281000,9.0870000,67.0776000,65.6891000,61.8210000,-41.8150000,-12.4520000,4.7450000,0.000000,0,0,0
10.070,1.0599000,-0.0413000,9.1205000,67.1692000,66.9098000,62.5229000,-41.8400000,-12.4560000,5.1640000,0.000000,0,0,0
10.080,0.9881000,-0.0544000,9.1325000,67.1768000,67.6651000,63.4995000,-41.6740000,-12.4170000,5.3900000,0.000000,0,0,0
10.090,0.9499000,-0.0724000,9.1504000,66.7114000,67.5354000,64.5752000,-41.7560000,-12.4720000,5.3040000,0.000000,0,0,0
10.100,0.9487000,-0.0712000,9.2019000,65.6662000,66.6656000,65.3458000,-41.7180000,-12.5050000,4.6660000,0.000000,0,0,0
10.110,0.9798000,-0.0377000,9.3071000,64.2014000,65.7272000,65.3687000,-41.7400000,-12.3250000,4.7980000,0.000000,0,0,0
10.120,1.0324000,0.0281000,9.4555000,62.7441000,65.1932000,64.5294000,-41.7080000,-12.5460000,4.8000000,0.000000,0,0,0
10.130,1.0575000,0.0999000,9.5978000,61.7981000,65.1169000,63.0951000,-41.7780000,-12.5150000,5.1720000,0.000000,0,0,0
10.140,1.0073000,0.1358000,9.6828000,61.6837000,65.2924000,61.6760000,-41.5260000,-12.4920000,5.0140000,0.000000,0,0,0
10.150,0.8924000,0.1226000,9.6959000,62.3627000,65.5365000,60.8444000,-41.6580000,-12.6020000,5.1420000,0.000000,0,0,0
10.160,0.7596000,0.0891000,9.6624000,63.3926000,65.8875000,60.8521000,-41.5070000,-12.6160000,4.9610000,0.000000,0,0,0
10.170,0.6711000,0.0473000,9.6074000,64.1174000,66.4139000,61.5387000,-41.4070000,-12.4810000,5.0240000,0.000000,0,0,0
10.180,0.6604000,0.0078000,9.5631000,64.3234000,67.0547000,62.4924000,-41.4190000,-12.6060000,4.7970000,0.000000,0,0,0
10.190,0.7309000,0.0006000,9.5560000,64.0640000,67.4744000,63.2324000,-41.3820000,-12.3190000,5.5960000,0.000000,0,0,0
10.200,0.8458000,0.0484000,9.5871000,63.4842000,67.3981000,63.4460000,-41.2780000,-12.6310000,4.7970000,0.000000,0,0,0
10.210,0.9487000,0.1358000,9.6385000,62.7747000,66.8945000,62.9654000,-41.4510000,-12.1570000,6.0660000,0.000000,0,0,0
10.220,0.9977000,0.2135000,9.6852000,62.3398000,66.1316000,61.9888000,-41.6960000,-12.4830000,5.4100000,0.000000,0,0,0
10.230,0.9869000,0.2554000,9.7055000,62.4542000,65.1474000,61.0809000,-41.1540000,-12.3480000,5.1450000,0.000000,0,0,0
10.240,0.9343000,0.2566000,9.6971000,63.0188000,64.0106000,60.7681000,-41.3950000,-12.4900000,4.6760000,0.000000,0,0,0
10.250,0.8542000,0.2267000,9.6684000,63.6520000,63.0264000,61.2793000,-41.4760000,-12.3330000,5.1280000,0.000000,0,0,0
10.260,0.7273000,0.1418000,9.6146000,63.9954000,62.1338000,63.2172000,-41.5040000,-12.1110000,5.5390000,0.000000,0,0,0
10.270,0.6855000,0.1190000,9.6241000,63.6520000,62.0804000,64.3997000,-41.5140000,-11.9760000,5.3400000,0.000000,0,0,0
10.280,0.7094000,0.1430000,9.6756000,62.8891000,62.7594000,64.5752000,-41.2920000,-12.1990000,5.4600000,0.000000,0,0,0
10.290,0.7764000,0.1788000,9.7414000,61.8286000,63.8657000,63.6444000,-41.3260000,-12.3050000,4.8630000,0.000000,0,0,0
10.300,0.8446000,0.2088000,9.7892000,60.6384000,64.7430000,62.1567000,-41.4600000,-12.1440000,5.2760000,0.000000,0,0,0
10.310,0.8745000,0.2243000,9.8000000,59.5398000,65.0253000,60.7681000,-41.1820000,-12.2540000,4.9990000,0.000000,0,0,0
10.320,0.8506000,0.2207000,9.7593000,58.6319000,64.6133000,60.0204000,-41.7460000,-11.9660000,5.2960000,0.000000,0,0,0
10.330,0.7931000,0.1824000,9.6660000,58.0139000,63.7589000,60.1730000,-41.1830000,-12.4490000,5.8140000,0.000000,0,0,0
10.340,0.7321000,0.1226000,9.5512000,57.8156000,62.8738000,60.9894000,-41.5420000,-12.4220000,4.9400000,0.000000,0,0,0
10.350,0.7010000,0.0664000,9.4567000,58.1512000,62.3627000,61.9812000,-41.3160000,-12.5260000,5.7020000,0.000000,0,0,0
10.360,0.7202000,0.0245000,9.4124000,58.9447000,62.5381000,62.7365000,-41.3860000,-12.6170000,5.5990000,0.000000,0,0,0
10.370,0.7919000,0.0054000,9.4196000,59.9136000,63.4460000,63.0341000,-41.6130000,-12.7020000,5.7950000,0.000000,0,0,0
10.380,0.8924000,0.0042000,9.4615000,60.8139000,64.5447000,62.9425000,-41.5670000,-12.9780000,5.8720000,0.000000,0,0,0
10.390,0.9905000,0.0245000,9.5237000,61.6608000,65.2390000,62.5687000,-41.4840000,-12.5870000,6.2150000,0.000000,0,0,0
10.400,1.0539000,0.0449000,9.5595000,62.5076000,65.3152000,61.9965000,-41.1320000,-12.4260000,5.7860000,0.000000,0,0,0
10.410,1.0635000,0.0461000,9.5368000,63.4689000,64.7125000,61.5158000,-41.4110000,-12.5770000,5.2550000,0.000000,0,0,0
10.420,1.0336000,0.0245000,9.4638000,64.5523000,63.5834000,61.4319000,-41.4220000,-12.6960000,4.8430000,0.000000,0,0,0
10.430,0.9738000,-0.0197000,9.3681000,65.6891000,62.3322000,61.9431000,-41.4740000,-12.5760000,5.2490000,0.000000,0,0,0
10.440,0.9128000,-0.0999000,9.2784000,66.7191000,61.6226000,62.9425000,-41.3280000,-12.3580000,5.1600000,0.000000,0,0,0
10.450,0.8757000,-0.1932000,9.2401000,67.5964000,62.0575000,64.0030000,-41.1550000,-12.3640000,5.3790000,0.000000,0,0,0
10.460,0.8853000,-0.2769000,9.2665000,68.2068000,63.5071000,64.7659000,-41.5390000,-12.1600000,4.8560000,0.000000,0,0,0
10.470,0.9439000,-0.3260000,9.3466000,68.4204000,65.2313000,65.0558000,-41.3020000,-12.3330000,4.8090000,0.000000,0,0,0
10.480,1.0061000,-0.3260000,9.4567000,68.0847000,66.4597000,64.8346000,-41.2260000,-12.5210000,4.8540000,0.000000,0,0,0
10.490,1.0228000,-0.2925000,9.5572000,67.3141000,66.7114000,64.1861000,-41.0160000,-12.7560000,4.6180000,0.000000,0,0,0
10.500,0.9881000,-0.2434000,9.6445000,66.3910000,66.0095000,63.3469000,-41.4080000,-12.4380000,4.6830000,0.000000,0,0,0
10.510,0.9223000,-0.2016000,9.7055000,65.5899000,64.7659000,62.5763000,-41.2650000,-12.6470000,4.2750000,0.000000,0,0,0
10.520,0.8350000,-0.1765000,9.7390000,65.0940000,63.4613000,62.1033000,-41.5470000,-12.7930000,4.8000000,0.000000,0,0,0
10.530,0.7501000,-0.1537000,9.7593000,64.8270000,62.6602000,61.9888000,-41.1910000,-12.2560000,4.9980000,0.000000,0,0,0
10.540,0.6938000,-0.1238000,9.7749000,64.5599000,62.8204000,62.1414000,-41.2210000,-12.7890000,4.4660000,0.000000,0,0,0
10.550,0.6903000,-0.0819000,9.7856000,64.1479000,63.7970000,62.3169000,-40.9670000,-12.4260000,4.4930000,0.000000,0,0,0
10.560,0.7321000,-0.0305000,9.7809000,63.5986000,65.0177000,62.3322000,-41.1670000,-12.2680000,4.5140000,0.000000,0,0,0
10.570,0.7800000,0.0353000,9.7557000,63.0569000,65.7959000,62.1185000,-41.1210000,-12.4430000,4.3080000,0.000000,0,0,0
10.580,0.8099000,0.0975000,9.7187000,62.7518000,65.8951000,61.6913000,-41.1040000,-12.5640000,3.9570000,0.000000,0,0,0
10.590,0.8230000,0.1442000,9.6672000,62.7670000,65.4221000,61.2488000,-41.1150000,-12.7540000,4.9650000,0.000000,0,0,0
10.600,0.8242000,0.1693000,9.6229000,62.9654000,64.6210000,60.9970000,-41.0560000,-12.3930000,4.1420000,0.000000,0,0,0
10.610,0.8254000,0.1776000,9.6014000,63.2401000,63.8657000,60.9894000,-41.4650000,-12.4020000,4.3410000,0.000000,0,0,0
10.620,0.8398000,0.1800000,9.6086000,63.5681000,63.3850000,61.0886000,-41.1630000,-12.4780000,4.9450000,0.000000,0,0,0
10.630,0.8613000,0.1812000,9.6265000,63.8351000,63.2401000,61.0886000,-41.1080000,-12.3960000,4.6410000,0.000000,0,0,0
10.640,0.8757000,0.1812000,9.6277000,63.8885000,63.2629000,60.9360000,-41.0180000,-12.3410000,4.1240000,0.000000,0,0,0
10.650,0.8817000,0.1776000,9.6050000,63.6978000,63.1943000,60.6995000,-41.0010000,-12.4310000,4.6030000,0.000000,0,0,0
10.660,0.8781000,0.1693000,9.5667000,63.3316000,62.8128000,60.5621000,-40.8780000,-12.5170000,5.5560000,0.000000,0,0,0
10.670,0.8721000,0.1681000,9.5332000,62.8433000,62.1567000,60.6918000,-41.0160000,-12.0850000,4.8570000,0.000000,0,0,0
10.680,0.8637000,0.1657000,9.5153000,62.2635000,61.5997000,61.0809000,-41.0230000,-12.6990000,5.0720000,0.000000,0,0,0
10.690,0.8482000,0.1609000,9.4949000,61.8362000,61.4090000,61.6074000,-41.0910000,-12.3490000,4.8850000,0.000000,0,0,0
10.700,0.8326000,0.1537000,9.4543000,61.7676000,61.7371000,62.1033000,-40.8720000,-12.4460000,5.4110000,0.000000,0,0,0
10.710,0.8326000,0.1501000,9.3945000,62.0728000,62.5687000,62.4771000,-41.1520000,-12.2600000,5.1240000,0.000000,0,0,0
10.720,0.8518000,0.1501000,9.3323000,62.6450000,63.5605000,62.7365000,-40.8990000,-12.4000000,4.8570000,0.000000,0,0,0
10.730,0.8781000,0.1549000,9.2832000,63.3316000,64.3005000,62.9120000,-40.8820000,-12.4200000,4.9700000,0.000000,0,0,0
10.740,0.8865000,0.1633000,9.2461000,63.9420000,64.5752000,63.0569000,-41.2230000,-12.7120000,4.9300000,0.000000,0,0,0
10.750,0.8589000,0.1681000,9.2282000,64.3768000,64.3387000,63.2629000,-41.0030000,-12.7140000,4.7070000,0.000000,0,0,0
10.760,0.8027000,0.1669000,9.2318000,64.6210000,63.7054000,63.4995000,-40.9320000,-12.5700000,5.1310000,0.000000,0,0,0
10.770,0.7357000,0.1681000,9.2605000,64.7125000,63.0493000,63.6902000,-41.0570000,-12.5170000,4.9820000,0.000000,0,0,0
10.780,0.6759000,0.1657000,9.3107000,64.7507000,62.9425000,63.6826000,-41.0090000,-12.3600000,4.8630000,0.000000,0,0,0
10.790,0.6496000,0.1597000,9.3741000,64.8804000,63.7817000,63.4842000,-40.8930000,-12.3660000,4.5020000,0.000000,0,0,0
10.800,0.6699000,0.1501000,9.4495000,65.1016000,65.4144000,63.2172000,-40.9720000,-12.3450000,4.6140000,0.000000,0,0,0
10.810,0.7226000,0.1370000,9.5284000,65.3763000,67.1463000,63.0493000,-40.6890000,-12.1750000,4.6130000,0.000000,0,0,0
10.820,0.7692000,0.1202000,9.6038000,65.6509000,68.2144000,63.1561000,-41.2510000,-12.3380000,4.9440000,0.000000,0,0,0
10.830,0.7788000,0.1059000,9.6672000,65.8951000,68.2678000,63.5529000,-40.8130000,-12.4080000,5.1250000,0.000000,0,0,0
10.840,0.7130000,0.1095000,9.7342000,66.3910000,66.9556000,64.4836000,-41.1000000,-12.2150000,4.5960000,0.000000,0,0,0
10.850,0.6484000,0.1465000,9.7617000,66.8030000,65.9790000,64.9490000,-41.0450000,-12.2020000,4.8340000,0.000000,0,0,0
10.860,0.6029000,0.1944000,9.7868000,67.1768000,65.5441000,65.0177000,-40.8560000,-12.3500000,5.4100000,0.000000,0,0,0
10.870,0.6089000,0.2434000,9.8275000,67.4515000,65.6357000,64.7812000,-40.9320000,-12.2470000,4.7630000,0.000000,0,0,0
10.880,0.6556000,0.2841000,9.8730000,67.6651000,65.8264000,64.4379000,-40.7130000,-12.2420000,5.1030000,0.000000,0,0,0
10.890,0.6950000,0.3057000,9.9005000,67.7872000,65.6738000,64.2014000,-40.8960000,-12.2540000,5.2920000,0.000000,0,0,0
10.900,0.6974000,0.3057000,9.9089000,67.7872000,65.0864000,64.1098000,-41.1180000,-12.4620000,5.1150000,0.000000,0,0,0
10.910,0.6484000,0.2997000,9.9160000,67.7338000,64.3387000,64.0717000,-40.9650000,-12.3750000,5.3870000,0.000000,0,0,0
10.920,0.5730000,0.3045000,9.9555000,67.7948000,63.6902000,64.0259000,-40.8040000,-12.1250000,5.2520000,0.000000,0,0,0
10.930,0.5168000,0.3224000,10.0213000,68.0847000,63.1104000,63.8962000,-40.8700000,-12.0480000,5.6240000,0.000000,0,0,0
10.940,0.4989000,0.3439000,10.0823000,68.5577000,62.3932000,63.6749000,-40.7880000,-12.1740000,5.4030000,0.000000,0,0,0
10.950,0.5144000,0.3643000,10.1027000,68.8705000,61.5463000,63.3698000,-40.7590000,-12.2320000,4.4910000,0.000000,0,0,0
10.960,0.5515000,0.3679000,10.0512000,68.7408000,60.8215000,62.9578000,-40.8520000,-12.4400000,4.7260000,0.000000,0,0,0
10.970,0.5969000,0.3439000,9.9148000,68.0695000,60.4172000,62.5076000,-40.9860000,-12.3380000,4.9760000,0.000000,0,0,0
10.980,0.6424000,0.2937000,9.7222000,66.9098000,60.3943000,62.1490000,-41.1250000,-12.6050000,5.1020000,0.000000,0,0,0
10.990,0.6771000,0.2303000,9.5093000,65.5212000,60.7910000,61.9507000,-40.6530000,-12.2620000,4.7480000,0.000000,0,0,0
11.000,0.7022000,0.1693000,9.3203000,64.2929000,61.3556000,61.9736000,-40.9250000,-12.2250000,4.9430000,0.000000,0,0,0
11.010,0.7130000,0.1322000,9.1791000,63.5529000,61.7676000,62.2864000,-41.1340000,-12.5510000,4.8130000,0.000000,0,0,0
11.020,0.7166000,0.1322000,9.1073000,63.3621000,61.9507000,62.8891000,-40.9460000,-12.5560000,4.7910000,0.000000,0,0,0
11.030,0.7261000,0.1621000,9.0930000,63.6749000,62.1338000,63.5986000,-40.7290000,-12.4230000,4.7050000,0.000000,0,0,0
11.040,0.7501000,0.2016000,9.1062000,64.2624000,62.6602000,64.1327000,-41.1600000,-12.2960000,4.6520000,0.000000,0,0,0
11.050,0.7860000,0.2339000,9.1337000,64.8422000,63.7436000,64.2929000,-41.0440000,-12.1370000,4.7150000,0.000000,0,0,0
11.060,0.8266000,0.2482000,9.1719000,65.2847000,65.1093000,64.0488000,-41.0430000,-12.2930000,4.5950000,0.000000,0,0,0
11.070,0.8542000,0.2351000,9.2186000,65.5975000,66.3986000,63.5300000,-41.1980000,-12.1550000,5.2030000,0.000000,0,0,0
11.080,0.8577000,0.2111000,9.2605000,65.6815000,67.3523000,62.9349000,-41.0790000,-12.4250000,5.4520000,0.000000,0,0,0
11.090,0.8314000,0.1896000,9.3047000,65.4907000,67.8558000,62.4313000,-40.9080000,-12.3520000,4.5880000,0.000000,0,0,0
11.100,0.7860000,0.1800000,9.3646000,65.1474000,67.8940000,62.2177000,-40.9030000,-12.3690000,5.0630000,0.000000,0,0,0
11.110,0.7297000,0.1824000,9.4339000,64.9261000,67.5125000,62.3856000,-40.8730000,-12.4400000,5.5490000,0.000000,0,0,0
11.120,0.6807000,0.1944000,9.5069000,64.9872000,66.9632000,62.8204000,-40.9160000,-12.2680000,5.2410000,0.000000,0,0,0
