time,accel_x,accel_y,accel_z,gyro_x,gyro_y,gyro_z,mag_x,mag_y,mag_z,baro,gps_lat,gps_lon,gps_alt
0.780,-0.1465000,-0.0963000,9.6241000,36.7203000,26.7410000,36.4609000,-40.3520000,-12.2150000,5.8020000,0.000000,0,0,0
0.790,-0.1465000,-0.0963000,9.6241000,36.7203000,26.7410000,36.4609000,-40.3520000,-12.2150000,5.8020000,0.000000,0,0,0
0.800,-0.1382000,-0.1083000,9.6170000,36.3770000,26.8021000,36.8500000,-40.3130000,-12.3640000,5.2600000,0.000000,0,0,0
0.810,-0.1250000,-0.0987000,9.6110000,36.4380000,26.4969000,36.7126000,-40.4520000,-12.0930000,4.7910000,0.000000,0,0,0
0.820,-0.1107000,-0.0676000,9.6074000,36.6058000,26.0620000,36.3388000,-40.3780000,-12.1920000,5.3780000,0.000000,0,0,0
0.830,-0.0915000,-0.0293000,9.6098000,36.6974000,25.7568000,35.8505000,-40.4630000,-12.1180000,4.6050000,0.000000,0,0,0
0.840,-0.0676000,0.0018000,9.6098000,36.6135000,25.6805000,35.3317000,-40.3390000,-12.0160000,5.8500000,0.000000,0,0,0
0.850,-0.0484000,0.0102000,9.6086000,36.3388000,25.8102000,34.8358000,-40.5580000,-12.3660000,5.3850000,0.000000,0,0,0
0.860,-0.0401000,-0.0006000,9.6110000,35.9802000,26.1078000,34.4086000,-40.5060000,-12.2710000,5.0470000,0.000000,0,0,0
0.870,-0.0449000,-0.0269000,9.6146000,35.6674000,26.5045000,34.1034000,-40.3170000,-11.9730000,5.4330000,0.000000,0,0,0
0.880,-0.0580000,-0.0640000,9.6206000,35.5225000,26.9394000,33.8974000,-40.3540000,-12.1100000,5.0710000,0.000000,0,0,0
0.890,-0.0724000,-0.0939000,9.6229000,35.5225000,27.3438000,33.7067000,-40.3190000,-12.0890000,5.0930000,0.000000,0,0,0
0.900,-0.0796000,-0.0987000,9.6218000,35.6064000,27.6794000,33.4549000,-40.4170000,-12.2600000,5.2860000,0.000000,0,0,0
0.910,-0.0831000,-0.0819000,9.6194000,35.6979000,27.8931000,33.1955000,-40.5840000,-12.0600000,4.6570000,0.000000,0,0,0
0.920,-0.0760000,-0.0544000,9.6146000,35.7666000,27.9541000,33.0200000,-40.7470000,-12.1600000,5.0970000,0.000000,0,0,0
0.930,-0.0592000,-0.0317000,9.6062000,35.8505000,27.8244000,32.8827000,-40.4960000,-12.4470000,5.3550000,0.000000,0,0,0
0.940,-0.0389000,-0.0161000,9.6014000,35.9726000,27.5192000,32.7148000,-40.4010000,-12.0050000,4.6930000,0.000000,0,0,0
0.950,-0.0257000,-0.0042000,9.6026000,36.1023000,27.2446000,32.4707000,-40.3700000,-11.9250000,4.5770000,0.000000,0,0,0
0.960,-0.0209000,0.0054000,9.6074000,36.1633000,27.1530000,32.1808000,-40.7030000,-11.7980000,4.9630000,0.000000,0,0,0
0.970,-0.0257000,-0.0102000,9.6098000,36.0565000,27.2522000,31.9748000,-40.5760000,-12.0090000,5.2040000,0.000000,0,0,0
0.980,-0.0341000,-0.0377000,9.6134000,35.7971000,27.5574000,31.8680000,-40.5570000,-11.7450000,5.0140000,0.000000,0,0,0
0.990,-0.0425000,-0.0664000,9.6170000,35.4996000,27.9922000,31.8146000,-40.5940000,-12.1210000,5.0060000,0.000000,0,0,0
1.000,-0.0556000,-0.0975000,9.6218000,35.2554000,28.4271000,31.9061000,-40.3760000,-11.8960000,4.9890000,0.000000,0,0,0
1.010,-0.0724000,-0.1346000,9.6229000,35.0876000,28.7628000,32.2113000,-40.4080000,-11.9570000,4.9290000,0.000000,0,0,0
1.020,-0.0784000,-0.1669000,9.6194000,35.0494000,28.8696000,32.6004000,-40.4360000,-12.1510000,4.6090000,0.000000,0,0,0
1.030,-0.0819000,-0.1860000,9.6146000,35.2097000,28.6713000,32.8903000,-40.4710000,-11.9840000,4.7340000,0.000000,0,0,0
1.040,-0.0855000,-0.1848000,9.6110000,35.5072000,28.2745000,33.0582000,-40.2180000,-12.2970000,4.8280000,0.000000,0,0,0
1.050,-0.0891000,-0.1573000,9.6122000,35.7513000,27.8549000,33.1345000,-40.3000000,-12.0560000,5.8140000,0.000000,0,0,0
1.060,-0.0903000,-0.1130000,9.6146000,35.8047000,27.5726000,33.1802000,-40.5490000,-11.9310000,5.3300000,0.000000,0,0,0
1.070,-0.0915000,-0.0676000,9.6122000,35.7361000,27.4124000,33.2489000,-40.5360000,-11.9690000,5.1510000,0.000000,0,0,0
1.080,-0.0927000,-0.0377000,9.6098000,35.6140000,27.3209000,33.3862000,-40.6250000,-12.0310000,5.2490000,0.000000,0,0,0
1.090,-0.0903000,-0.0305000,9.6086000,35.4996000,27.2369000,33.5922000,-40.2400000,-11.8880000,6.0610000,0.000000,0,0,0
1.100,-0.0784000,-0.0389000,9.6110000,35.5072000,27.1454000,33.7143000,-40.3240000,-11.9280000,5.5060000,0.000000,0,0,0
1.110,-0.0604000,-0.0592000,9.6134000,35.6522000,27.1378000,33.6227000,-40.2710000,-11.7680000,4.9940000,0.000000,0,0,0
1.120,-0.0473000,-0.0867000,9.6170000,35.8124000,27.2980000,33.4396000,-40.4390000,-11.9370000,5.1250000,0.000000,0,0,0
1.130,-0.0437000,-0.1071000,9.6206000,35.8429000,27.6718000,33.3862000,-40.4640000,-11.9680000,5.0070000,0.000000,0,0,0
1.140,-0.0484000,-0.1214000,9.6241000,35.7361000,28.1830000,33.5999000,-40.3080000,-11.6480000,5.1200000,0.000000,0,0,0
1.150,-0.0712000,-0.1346000,9.6229000,35.4919000,28.8162000,34.3704000,-40.4100000,-11.9350000,4.8120000,0.000000,0,0,0
1.160,-0.0867000,-0.1334000,9.6170000,35.5072000,28.9078000,34.8740000,-40.4300000,-12.1080000,4.8280000,0.000000,0,0,0
1.170,-0.0939000,-0.1178000,9.6110000,35.7132000,28.6636000,35.1181000,-40.4820000,-11.8000000,4.9630000,0.000000,0,0,0
1.180,-0.0927000,-0.0831000,9.6074000,35.9650000,28.1601000,35.0342000,-40.3260000,-12.1550000,5.2640000,0.000000,0,0,0
1.190,-0.0903000,-0.0449000,9.6062000,36.1557000,27.6260000,34.6756000,-40.1730000,-11.9210000,4.5420000,0.000000,0,0,0
1.200,-0.0867000,-0.0197000,9.6074000,36.2625000,27.1835000,34.2178000,-40.3510000,-12.2880000,4.2420000,0.000000,0,0,0
1.210,-0.0784000,-0.0114000,9.6098000,36.3007000,26.9012000,33.7219000,-40.5160000,-12.0940000,4.3920000,0.000000,0,0,0
1.220,-0.0676000,-0.0197000,9.6110000,36.2549000,26.7868000,33.2260000,-40.5170000,-11.8140000,4.6370000,0.000000,0,0,0
1.230,-0.0592000,-0.0377000,9.6122000,36.1176000,26.8555000,32.7988000,-40.3410000,-12.0340000,5.0120000,0.000000,0,0,0
1.240,-0.0568000,-0.0640000,9.6122000,35.9268000,27.0386000,32.5470000,-40.5920000,-11.8960000,4.9290000,0.000000,0,0,0
1.250,-0.0580000,-0.0879000,9.6146000,35.7590000,27.2827000,32.5470000,-40.3820000,-12.1590000,5.1090000,0.000000,0,0,0
1.260,-0.0640000,-0.1059000,9.6146000,35.6903000,27.5116000,32.7606000,-40.3870000,-11.7480000,4.7030000,0.000000,0,0,0
1.270,-0.0664000,-0.1190000,9.6122000,35.7513000,27.6566000,33.0811000,-40.3330000,-11.7940000,4.3420000,0.000000,0,0,0
1.280,-0.0664000,-0.1226000,9.6098000,35.9039000,27.6794000,33.3862000,-40.2090000,-12.0720000,5.1180000,0.000000,0,0,0
1.290,-0.0628000,-0.1119000,9.6098000,36.0718000,27.6642000,33.6075000,-40.3230000,-12.1300000,4.6850000,0.000000,0,0,0
1.300,-0.0544000,-0.0879000,9.6098000,36.1481000,27.6794000,33.6609000,-40.2240000,-11.9870000,4.5180000,0.000000,0,0,0
1.310,-0.0413000,-0.0592000,9.6098000,36.0641000,27.8320000,33.5236000,-40.3040000,-12.0670000,4.9270000,0.000000,0,0,0
1.320,-0.0317000,-0.0389000,9.6074000,35.8658000,28.0609000,33.2565000,-40.2600000,-12.0230000,4.2270000,0.000000,0,0,0
1.330,-0.0329000,-0.0317000,9.6062000,35.6216000,28.2669000,32.9514000,-40.1000000,-11.9120000,4.3160000,0.000000,0,0,0
1.340,-0.0413000,-0.0389000,9.6050000,35.4080000,28.3051000,32.6691000,-40.1760000,-12.3270000,4.3780000,0.000000,0,0,0
1.350,-0.0532000,-0.0568000,9.6050000,35.3241000,28.1525000,32.4326000,-40.3120000,-12.2700000,4.7280000,0.000000,0,0,0
1.360,-0.0628000,-0.0736000,9.6062000,35.4080000,27.8320000,32.2189000,-40.2830000,-12.1100000,4.9720000,0.000000,0,0,0
1.370,-0.0664000,-0.0819000,9.6062000,35.6903000,27.4124000,31.9901000,-40.3170000,-12.0440000,4.6200000,0.000000,0,0,0
1.380,-0.0664000,-0.0807000,9.6098000,36.0947000,27.0538000,31.7612000,-40.5250000,-11.8790000,4.6360000,0.000000,0,0,0
1.390,-0.0616000,-0.0712000,9.6122000,36.3998000,26.9089000,31.6238000,-40.3050000,-11.7880000,4.9780000,0.000000,0,0,0
1.400,-0.0592000,-0.0556000,9.6134000,36.4532000,27.0996000,31.6696000,-40.7140000,-11.6880000,4.8340000,0.000000,0,0,0
1.410,-0.0712000,-0.0473000,9.6170000,36.3083000,27.5879000,32.0053000,-40.3590000,-12.0280000,4.4570000,0.000000,0,0,0
1.420,-0.0891000,-0.0520000,9.6170000,35.9879000,28.1677000,32.7072000,-40.4010000,-11.9700000,4.9560000,0.000000,0,0,0
1.430,-0.1011000,-0.0664000,9.6194000,35.6216000,28.7323000,33.5541000,-39.9910000,-12.0040000,3.9170000,0.000000,0,0,0
1.440,-0.1035000,-0.0855000,9.6182000,35.3699000,29.0680000,34.2789000,-40.5010000,-11.8540000,5.0710000,0.000000,0,0,0
1.450,-0.0963000,-0.1059000,9.6170000,35.3775000,29.1367000,34.6603000,-40.4550000,-11.7220000,5.3600000,0.000000,0,0,0
1.460,-0.0796000,-0.1202000,9.6134000,35.6216000,28.8773000,34.7366000,-40.4150000,-11.9830000,4.8270000,0.000000,0,0,0
1.470,-0.0604000,-0.1274000,9.6110000,35.9268000,28.4424000,34.6603000,-40.4330000,-12.2540000,5.3620000,0.000000,0,0,0
1.480,-0.0401000,-0.1250000,9.6122000,36.2015000,28.0151000,34.5154000,-40.3400000,-11.8800000,4.7810000,0.000000,0,0,0
1.490,-0.0209000,-0.1154000,9.6134000,36.3617000,27.7786000,34.3552000,-40.3210000,-12.1560000,4.6170000,0.000000,0,0,0
1.500,-0.0090000,-0.0975000,9.6146000,36.2930000,27.7634000,34.2026000,-40.2040000,-12.2110000,4.7110000,0.000000,0,0,0
1.510,-0.0114000,-0.0819000,9.6146000,36.0641000,27.9388000,34.1187000,-40.4980000,-12.1400000,5.4370000,0.000000,0,0,0
1.520,-0.0233000,-0.0700000,9.6134000,35.7590000,28.1754000,34.1187000,-40.5850000,-12.2200000,4.7280000,0.000000,0,0,0
1.530,-0.0413000,-0.0652000,9.6122000,35.4767000,28.3508000,34.1492000,-40.2730000,-11.8780000,4.9920000,0.000000,0,0,0
1.540,-0.0616000,-0.0712000,9.6134000,35.3165000,28.4042000,34.1263000,-40.3010000,-12.1300000,4.9810000,0.000000,0,0,0
1.550,-0.0807000,-0.0784000,9.6134000,35.3699000,28.3127000,34.0042000,-40.0270000,-11.8820000,5.1070000,0.000000,0,0,0
1.560,-0.0963000,-0.0784000,9.6134000,35.5453000,28.0991000,33.8440000,-39.9450000,-12.0230000,3.9560000,0.000000,0,0,0
1.570,-0.1059000,-0.0748000,9.6122000,35.6827000,27.8625000,33.7296000,-40.3410000,-11.9820000,4.9020000,0.000000,0,0,0
1.580,-0.1071000,-0.0712000,9.6110000,35.7513000,27.6108000,33.6990000,-40.4490000,-11.9610000,4.8100000,0.000000,0,0,0
1.590,-0.1035000,-0.0736000,9.6122000,35.7895000,27.4200000,33.7372000,-40.5020000,-12.3670000,4.7240000,0.000000,0,0,0
1.600,-0.0951000,-0.0796000,9.6146000,35.7971000,27.3590000,33.7830000,-40.4640000,-11.9270000,4.8780000,0.000000,0,0,0
1.610,-0.0843000,-0.0915000,9.6158000,35.7971000,27.4048000,33.8058000,-40.0740000,-11.9440000,5.4050000,0.000000,0,0,0
1.620,-0.0712000,-0.1035000,9.6170000,35.7895000,27.5192000,33.7982000,-40.4160000,-12.0150000,5.5000000,0.000000,0,0,0
1.630,-0.0484000,-0.1071000,9.6158000,35.8200000,27.7328000,33.7448000,-40.5750000,-12.2320000,4.9790000,0.000000,0,0,0
1.640,-0.0353000,-0.0939000,9.6122000,35.7971000,27.8320000,33.6838000,-40.3300000,-11.8930000,4.7980000,0.000000,0,0,0
1.650,-0.0245000,-0.0724000,9.6110000,35.6827000,27.8931000,33.5922000,-40.2100000,-11.8150000,5.5330000,0.000000,0,0,0
1.660,-0.0233000,-0.0544000,9.6098000,35.4843000,27.9160000,33.5236000,-40.2720000,-11.8330000,5.0610000,0.000000,0,0,0
1.670,-0.0329000,-0.0473000,9.6098000,35.2707000,27.8778000,33.5693000,-40.3640000,-11.8190000,5.0840000,0.000000,0,0,0
1.680,-0.0580000,-0.0532000,9.6110000,35.1028000,27.7863000,33.7524000,-40.3960000,-12.0520000,5.2870000,0.000000,0,0,0
1.690,-0.0831000,-0.0724000,9.6122000,35.0418000,27.6489000,33.9966000,-40.3030000,-11.9790000,4.9450000,0.000000,0,0,0
1.700,-0.1023000,-0.0915000,9.6134000,35.1334000,27.4963000,34.1721000,-40.3230000,-12.1370000,5.4350000,0.000000,0,0,0
1.710,-0.1119000,-0.1071000,9.6146000,35.3317000,27.3514000,34.1797000,-39.9880000,-11.9810000,5.1360000,0.000000,0,0,0
1.720,-0.1107000,-0.1130000,9.6134000,35.5377000,27.2064000,34.0576000,-40.0220000,-12.2230000,4.4110000,0.000000,0,0,0
1.730,-0.1023000,-0.1095000,9.6146000,35.6903000,27.1072000,33.9279000,-40.4500000,-12.3580000,5.4130000,0.000000,0,0,0
1.740,-0.0927000,-0.1011000,9.6170000,35.7742000,27.1454000,33.9584000,-39.8520000,-12.1090000,5.3430000,0.000000,0,0,0
1.750,-0.0784000,-0.0951000,9.6194000,35.7666000,27.3285000,34.1949000,-40.3930000,-12.0420000,4.7830000,0.000000,0,0,0
1.760,-0.0604000,-0.0915000,9.6194000,35.6750000,27.6108000,34.5001000,-40.4120000,-12.0170000,5.2660000,0.000000,0,0,0
1.770,-0.0413000,-0.0939000,9.6170000,35.5530000,27.9007000,34.6985000,-40.1090000,-12.2820000,5.3670000,0.000000,0,0,0
1.780,-0.0269000,-0.0927000,9.6134000,35.4767000,28.0914000,34.6909000,-40.1740000,-12.1030000,4.7470000,0.000000,0,0,0
1.790,-0.0221000,-0.0855000,9.6110000,35.5072000,28.1448000,34.4696000,-40.4220000,-12.4800000,4.9480000,0.000000,0,0,0
1.800,-0.0245000,-0.0748000,9.6086000,35.6445000,28.0685000,34.1110000,-40.3080000,-12.1430000,5.0950000,0.000000,0,0,0
1.810,-0.0341000,-0.0604000,9.6074000,35.7895000,27.9160000,33.7677000,-40.4840000,-12.1400000,5.5480000,0.000000,0,0,0
1.820,-0.0508000,-0.0496000,9.6074000,35.8887000,27.7557000,33.5388000,-40.4650000,-12.0420000,5.1950000,0.000000,0,0,0
1.830,-0.0652000,-0.0473000,9.6110000,35.9116000,27.6871000,33.4473000,-40.1910000,-12.1900000,4.9970000,0.000000,0,0,0
1.840,-0.0784000,-0.0580000,9.6146000,35.8810000,27.7557000,33.5007000,-40.2690000,-11.9520000,5.6260000,0.000000,0,0,0
1.850,-0.0843000,-0.0760000,9.6182000,35.7742000,27.9388000,33.6380000,-40.4540000,-12.2760000,5.2260000,0.000000,0,0,0
1.860,-0.0843000,-0.0927000,9.6182000,35.6064000,28.1372000,33.7372000,-40.4200000,-11.9310000,5.2680000,0.000000,0,0,0
1.870,-0.0796000,-0.1047000,9.6158000,35.4767000,28.2364000,33.6761000,-40.1660000,-11.9990000,4.0670000,0.000000,0,0,0
1.880,-0.0772000,-0.1095000,9.6122000,35.4691000,28.1601000,33.4854000,-40.1670000,-11.9810000,4.7620000,0.000000,0,0,0
1.890,-0.0760000,-0.1107000,9.6110000,35.6140000,27.9236000,33.2794000,-40.0850000,-12.2650000,5.2050000,0.000000,0,0,0
1.900,-0.0724000,-0.1011000,9.6110000,35.8658000,27.6413000,33.1116000,-40.2600000,-12.1090000,4.9600000,0.000000,0,0,0
1.910,-0.0640000,-0.0819000,9.6134000,36.0870000,27.4353000,32.9666000,-40.1990000,-12.1410000,5.7850000,0.000000,0,0,0
1.920,-0.0568000,-0.0628000,9.6146000,36.1633000,27.3819000,32.8979000,-40.3570000,-12.2350000,4.5790000,0.000000,0,0,0
1.930,-0.0484000,-0.0544000,9.6134000,36.0870000,27.4429000,32.9361000,-40.4720000,-12.1560000,4.1490000,0.000000,0,0,0
1.940,-0.0437000,-0.0592000,9.6110000,35.9421000,27.5269000,33.0963000,-40.4770000,-11.8310000,4.7050000,0.000000,0,0,0
1.950,-0.0461000,-0.0748000,9.6086000,35.8582000,27.5269000,33.2870000,-40.5220000,-12.3650000,5.1020000,0.000000,0,0,0
1.960,-0.0461000,-0.0891000,9.6062000,36.0184000,27.1530000,33.4396000,-40.3920000,-12.0330000,4.6710000,0.000000,0,0,0
1.970,-0.0484000,-0.0975000,9.6062000,36.3998000,26.6495000,33.4778000,-40.2820000,-12.3330000,4.5430000,0.000000,0,0,0
1.980,-0.0401000,-0.0736000,9.6062000,36.7279000,26.1230000,33.4244000,-40.4260000,-12.0740000,4.9170000,0.000000,0,0,0
1.990,-0.0281000,-0.0413000,9.6074000,36.7737000,25.8408000,33.1573000,-40.5600000,-12.1370000,4.6050000,0.000000,0,0,0
2.000,-0.0353000,-0.0413000,9.6122000,36.5829000,26.0010000,32.9208000,-40.3710000,-12.1480000,4.8380000,0.000000,0,0,0
2.010,-0.0389000,-0.0389000,9.6146000,36.3235000,26.3214000,32.7988000,-40.5920000,-12.3490000,5.3260000,0.000000,0,0,0
2.020,-0.0449000,-0.0592000,9.6182000,36.1557000,26.6113000,32.7225000,-40.5390000,-12.2600000,4.7920000,0.000000,0,0,0
2.030,-0.0700000,-0.1142000,9.6218000,36.1176000,26.9852000,32.9056000,-40.2970000,-12.1250000,5.0140000,0.000000,0,0,0
2.040,-0.0772000,-0.1609000,9.6241000,36.1710000,27.2598000,33.1802000,-40.6010000,-12.0340000,4.6170000,0.000000,0,0,0
2.050,-0.0807000,-0.1788000,9.6229000,36.2778000,27.4277000,33.3405000,-40.4770000,-12.0310000,5.1590000,0.000000,0,0,0
2.060,-0.0676000,-0.1621000,9.6194000,36.3922000,27.4963000,33.3557000,-40.4500000,-12.0190000,4.2640000,0.000000,0,0,0
2.070,-0.0580000,-0.1358000,9.6158000,36.4380000,27.6031000,33.4549000,-40.2160000,-12.0280000,4.5630000,0.000000,0,0,0
2.080,-0.0449000,-0.0963000,9.6110000,36.3464000,27.6794000,33.7448000,-40.5260000,-12.2750000,4.9400000,0.000000,0,0,0
2.090,-0.0257000,-0.0628000,9.6110000,36.2167000,27.7405000,33.9584000,-40.3550000,-12.1110000,5.1140000,0.000000,0,0,0
2.100,-0.0114000,-0.0496000,9.6146000,36.0184000,28.1296000,34.0042000,-40.4760000,-12.0020000,5.2800000,0.000000,0,0,0
2.110,-0.0042000,-0.0329000,9.6146000,35.6445000,28.9154000,33.9890000,-40.2110000,-12.1240000,5.3820000,0.000000,0,0,0
2.120,0.0006000,-0.0305000,9.6134000,35.3088000,29.5105000,34.0042000,-40.2780000,-11.8610000,5.0940000,0.000000,0,0,0
2.130,-0.0138000,-0.0640000,9.6086000,35.1868000,29.9530000,34.2712000,-40.3810000,-11.8130000,4.3530000,0.000000,0,0,0
2.140,-0.0281000,-0.0831000,9.6050000,35.3394000,29.7318000,34.3399000,-40.1880000,-12.0370000,5.1750000,0.000000,0,0,0
2.150,-0.0484000,-0.0975000,9.6038000,35.6598000,29.1748000,34.1568000,-40.3230000,-11.7540000,4.6880000,0.000000,0,0,0
2.160,-0.0688000,-0.1011000,9.6038000,36.0565000,28.3966000,33.8211000,-40.7340000,-12.0460000,5.2150000,0.000000,0,0,0
2.170,-0.0831000,-0.0903000,9.6074000,36.3846000,27.6413000,33.5083000,-40.2950000,-12.1510000,5.2690000,0.000000,0,0,0
2.180,-0.0867000,-0.0724000,9.6122000,36.5219000,27.1912000,33.3710000,-40.4780000,-12.2350000,4.6870000,0.000000,0,0,0
2.190,-0.0772000,-0.0556000,9.6158000,36.4456000,27.0844000,33.4091000,-40.4870000,-12.1200000,5.5390000,0.000000,0,0,0
2.200,-0.0628000,-0.0484000,9.6158000,36.2396000,27.2369000,33.4854000,-40.3890000,-12.1520000,5.1520000,0.000000,0,0,0
2.210,-0.0484000,-0.0508000,9.6146000,36.0336000,27.5116000,33.4702000,-40.3480000,-12.1330000,5.4200000,0.000000,0,0,0
2.220,-0.0341000,-0.0616000,9.6146000,35.9039000,27.8168000,33.3862000,-40.1640000,-11.8180000,4.9530000,0.000000,0,0,0
2.230,-0.0293000,-0.0736000,9.6146000,35.8429000,28.0991000,33.3252000,-40.3820000,-11.9650000,5.2070000,0.000000,0,0,0
2.240,-0.0293000,-0.0819000,9.6146000,35.8429000,28.3432000,33.3176000,-40.1360000,-11.9200000,4.9980000,0.000000,0,0,0
2.250,-0.0317000,-0.0867000,9.6146000,35.8582000,28.4958000,33.3023000,-40.5380000,-12.1500000,5.0170000,0.000000,0,0,0
2.260,-0.0437000,-0.0855000,9.6134000,35.8887000,28.5492000,33.2489000,-40.5330000,-12.1750000,5.2440000,0.000000,0,0,0
2.270,-0.0568000,-0.0796000,9.6134000,35.9344000,28.4805000,33.1573000,-40.3720000,-12.0130000,5.1360000,0.000000,0,0,0
2.280,-0.0688000,-0.0688000,9.6146000,36.0260000,28.3356000,33.0582000,-40.3380000,-11.8710000,4.9940000,0.000000,0,0,0
2.290,-0.0748000,-0.0628000,9.6146000,36.1252000,28.1219000,32.9361000,-40.5030000,-11.7990000,4.9640000,0.000000,0,0,0
2.300,-0.0784000,-0.0544000,9.6134000,36.2778000,27.9160000,32.8827000,-40.4590000,-12.2150000,5.1280000,0.000000,0,0,0
2.310,-0.0784000,-0.0473000,9.6122000,36.4532000,27.7557000,32.9285000,-40.5730000,-12.4010000,4.8170000,0.000000,0,0,0
2.320,-0.0712000,-0.0508000,9.6122000,36.6745000,27.6337000,33.0505000,-40.4990000,-12.0400000,4.8120000,0.000000,0,0,0
2.330,-0.0616000,-0.0580000,9.6122000,36.9415000,27.5726000,33.1955000,-40.5800000,-12.2930000,4.7710000,0.000000,0,0,0
2.340,-0.0461000,-0.0640000,9.6110000,37.2086000,27.5421000,33.2870000,-40.5140000,-12.1060000,4.9400000,0.000000,0,0,0
2.350,-0.0341000,-0.0700000,9.6062000,37.3840000,27.4811000,33.3252000,-40.2290000,-12.2360000,5.5490000,0.000000,0,0,0
2.360,-0.0257000,-0.0712000,9.6014000,37.3306000,27.3895000,33.3405000,-40.6070000,-12.4000000,6.0410000,0.000000,0,0,0
2.370,-0.0185000,-0.0592000,9.6050000,37.0789000,27.4353000,33.3405000,-40.3480000,-12.2190000,6.0750000,0.000000,0,0,0
2.380,-0.0209000,-0.0461000,9.6086000,36.7355000,27.7100000,33.4015000,-40.6260000,-12.0960000,5.4170000,0.000000,0,0,0
2.390,-0.0341000,-0.0508000,9.6122000,36.3541000,28.1067000,33.6685000,-40.3850000,-12.4140000,6.0970000,0.000000,0,0,0
2.400,-0.0496000,-0.0700000,9.6146000,36.0641000,28.4729000,34.1339000,-40.1980000,-12.0960000,6.0740000,0.000000,0,0,0
2.410,-0.0616000,-0.0891000,9.6170000,36.0184000,28.6407000,34.5993000,-40.4780000,-12.2120000,5.6790000,0.000000,0,0,0
2.420,-0.0676000,-0.0867000,9.6170000,36.1404000,28.5950000,34.8587000,-40.2450000,-12.1580000,6.0650000,0.000000,0,0,0
2.430,-0.0676000,-0.0640000,9.6170000,36.2320000,28.4805000,34.7900000,-40.2430000,-12.1570000,5.2360000,0.000000,0,0,0
2.440,-0.0664000,-0.0317000,9.6134000,36.2625000,28.2822000,34.4391000,-40.5770000,-12.4200000,5.3740000,0.000000,0,0,0
2.450,-0.0664000,-0.0054000,9.6098000,36.2320000,28.0457000,33.9432000,-40.3430000,-12.2640000,5.6270000,0.000000,0,0,0
2.460,-0.0664000,0.0090000,9.6074000,36.1557000,27.8091000,33.4549000,-40.3800000,-12.3590000,5.3370000,0.000000,0,0,0
2.470,-0.0664000,0.0042000,9.6098000,36.0565000,27.6566000,33.0505000,-40.5890000,-12.2450000,5.8970000,0.000000,0,0,0
2.480,-0.0700000,-0.0150000,9.6146000,35.9573000,27.6108000,32.7759000,-40.4930000,-12.0490000,5.6340000,0.000000,0,0,0
2.490,-0.0736000,-0.0413000,9.6170000,35.8887000,27.6489000,32.6614000,-40.5790000,-12.0700000,6.4100000,0.000000,0,0,0
2.500,-0.0736000,-0.0604000,9.6158000,35.8658000,27.7481000,32.6767000,-40.5300000,-12.3660000,5.3600000,0.000000,0,0,0
2.510,-0.0712000,-0.0688000,9.6134000,35.8810000,27.8244000,32.8140000,-40.4830000,-12.1020000,5.8850000,0.000000,0,0,0
2.520,-0.0688000,-0.0712000,9.6098000,35.9268000,27.7710000,33.0353000,-40.6290000,-12.0200000,6.0850000,0.000000,0,0,0
2.530,-0.0604000,-0.0712000,9.6062000,35.9802000,27.6184000,33.3023000,-40.2610000,-12.0170000,5.6120000,0.000000,0,0,0
2.540,-0.0496000,-0.0712000,9.6038000,36.0031000,27.4048000,33.5388000,-40.3830000,-12.0880000,5.6750000,0.000000,0,0,0
2.550,-0.0401000,-0.0724000,9.6062000,35.9879000,27.2064000,33.6914000,-40.4860000,-12.1770000,5.6640000,0.000000,0,0,0
2.560,-0.0365000,-0.0796000,9.6146000,35.9497000,27.2980000,33.8211000,-40.4430000,-11.7600000,5.3160000,0.000000,0,0,0
2.570,-0.0425000,-0.0879000,9.6194000,35.8582000,27.7405000,34.0576000,-40.1640000,-12.0190000,5.1920000,0.000000,0,0,0
2.580,-0.0413000,-0.0927000,9.6229000,35.8353000,28.2593000,34.3475000,-40.3830000,-11.9010000,5.9370000,0.000000,0,0,0
2.590,-0.0473000,-0.0927000,9.6241000,35.8353000,28.7781000,34.6451000,-40.5530000,-12.0220000,5.6120000,0.000000,0,0,0
2.600,-0.0568000,-0.0855000,9.6206000,35.8658000,29.0604000,34.9045000,-40.3840000,-11.7880000,5.1410000,0.000000,0,0,0
2.610,-0.0748000,-0.0748000,9.6134000,35.9573000,28.9307000,35.0647000,-40.6750000,-12.0230000,5.2490000,0.000000,0,0,0
2.620,-0.0855000,-0.0544000,9.6086000,36.1023000,28.4424000,35.0266000,-40.3940000,-12.0850000,5.3860000,0.000000,0,0,0
2.630,-0.0903000,-0.0185000,9.6050000,36.3846000,27.5421000,34.5001000,-40.2100000,-12.3750000,5.5700000,0.000000,0,0,0
2.640,-0.0843000,0.0018000,9.6062000,36.4685000,27.1835000,34.0881000,-40.1260000,-12.0460000,5.8290000,0.000000,0,0,0
2.650,-0.0736000,0.0078000,9.6098000,36.4609000,27.0691000,33.8211000,-40.3390000,-12.2680000,5.4930000,0.000000,0,0,0
2.660,-0.0520000,0.0030000,9.6134000,36.3846000,27.2064000,33.7143000,-40.3310000,-12.1730000,5.5660000,0.000000,0,0,0
2.670,-0.0293000,-0.0114000,9.6146000,36.2091000,27.5345000,33.7219000,-40.2420000,-11.9970000,5.7010000,0.000000,0,0,0
2.680,-0.0161000,-0.0317000,9.6146000,36.0413000,27.9007000,33.7830000,-40.3450000,-11.8640000,5.8960000,0.000000,0,0,0
2.690,-0.0173000,-0.0484000,9.6146000,35.8963000,28.2593000,33.8669000,-40.3910000,-12.1190000,5.0800000,0.000000,0,0,0
2.700,-0.0245000,-0.0592000,9.6122000,35.8429000,28.4042000,33.8440000,-40.5380000,-11.8340000,4.7330000,0.000000,0,0,0
2.710,-0.0329000,-0.0616000,9.6098000,35.8047000,28.4729000,33.5999000,-40.6170000,-11.9850000,5.2020000,0.000000,0,0,0
2.720,-0.0425000,-0.0532000,9.6086000,35.6674000,28.6102000,33.1497000,-40.0280000,-12.1340000,5.2410000,0.000000,0,0,0
2.730,-0.0616000,-0.0473000,9.6098000,35.5072000,28.7399000,32.7530000,-40.4570000,-11.9330000,4.8560000,0.000000,0,0,0
2.740,-0.0855000,-0.0496000,9.6122000,35.4156000,28.8086000,32.7072000,-40.2950000,-12.0370000,4.6260000,0.000000,0,0,0
2.750,-0.1011000,-0.0604000,9.6134000,35.3775000,28.8162000,33.0887000,-40.3900000,-12.3460000,4.7710000,0.000000,0,0,0
2.760,-0.1047000,-0.0724000,9.6134000,35.4614000,28.6942000,33.6151000,-40.4590000,-11.9920000,4.8140000,0.000000,0,0,0
2.770,-0.0999000,-0.0772000,9.6122000,35.6293000,28.4729000,33.9813000,-40.3420000,-12.0970000,4.9450000,0.000000,0,0,0
2.780,-0.0891000,-0.0748000,9.6110000,35.8124000,28.1372000,34.0424000,-40.3900000,-11.9890000,5.1190000,0.000000,0,0,0
2.790,-0.0736000,-0.0568000,9.6086000,35.9497000,27.7863000,33.8593000,-40.7970000,-12.0940000,3.9960000,0.000000,0,0,0
2.800,-0.0604000,-0.0317000,9.6074000,35.9955000,27.4734000,33.5770000,-40.4290000,-12.0190000,4.9500000,0.000000,0,0,0
2.810,-0.0544000,-0.0126000,9.6062000,35.9802000,27.2751000,33.3176000,-40.5390000,-12.3240000,4.7880000,0.000000,0,0,0
2.820,-0.0544000,-0.0066000,9.6074000,35.9039000,27.1835000,33.1802000,-40.2800000,-12.0650000,5.0440000,0.000000,0,0,0
2.830,-0.0604000,-0.0150000,9.6110000,35.8124000,27.2217000,33.1497000,-40.1950000,-12.0650000,4.9840000,0.000000,0,0,0
2.840,-0.0676000,-0.0269000,9.6134000,35.7437000,27.3285000,33.2108000,-40.2190000,-12.3120000,5.4380000,0.000000,0,0,0
2.850,-0.0736000,-0.0413000,9.6146000,35.6903000,27.4429000,33.3252000,-40.2990000,-12.0540000,5.6000000,0.000000,0,0,0
2.860,-0.0796000,-0.0532000,9.6146000,35.6369000,27.4887000,33.4930000,-40.3290000,-11.9840000,5.7040000,0.000000,0,0,0
2.870,-0.0772000,-0.0592000,9.6134000,35.6064000,27.4353000,33.6151000,-40.3680000,-12.1810000,5.7270000,0.000000,0,0,0
2.880,-0.0700000,-0.0556000,9.6134000,35.6522000,27.3361000,33.6380000,-40.3330000,-12.0950000,5.7290000,0.000000,0,0,0
2.890,-0.0568000,-0.0520000,9.6146000,35.7285000,27.3132000,33.5922000,-40.3510000,-12.0340000,5.4810000,0.000000,0,0,0
2.900,-0.0425000,-0.0473000,9.6146000,35.7361000,27.4124000,33.4702000,-40.0450000,-12.1730000,5.5430000,0.000000,0,0,0
2.910,-0.0281000,-0.0449000,9.6134000,35.6827000,27.6184000,33.3252000,-39.9320000,-12.2890000,5.2930000,0.000000,0,0,0
2.920,-0.0245000,-0.0437000,9.6110000,35.6140000,27.8549000,33.2413000,-40.4960000,-12.2530000,5.3910000,0.000000,0,0,0
2.930,-0.0365000,-0.0437000,9.6110000,35.5301000,28.1067000,33.3023000,-40.4370000,-12.5310000,5.5640000,0.000000,0,0,0
2.940,-0.0544000,-0.0520000,9.6122000,35.5225000,28.2669000,33.4778000,-40.7580000,-12.0700000,5.6680000,0.000000,0,0,0
2.950,-0.0736000,-0.0616000,9.6110000,35.5530000,28.2745000,33.6838000,-40.4330000,-12.3260000,5.7750000,0.000000,0,0,0
2.960,-0.0903000,-0.0664000,9.6098000,35.5911000,28.0685000,33.8287000,-40.5350000,-12.3130000,5.7230000,0.000000,0,0,0
2.970,-0.0987000,-0.0640000,9.6098000,35.6522000,27.6871000,33.9050000,-40.5000000,-12.4070000,5.5000000,0.000000,0,0,0
2.980,-0.0963000,-0.0580000,9.6086000,35.7132000,27.2064000,33.9203000,-40.4830000,-12.4190000,5.2670000,0.000000,0,0,0
2.990,-0.0867000,-0.0508000,9.6098000,35.7361000,26.7487000,33.8440000,-40.1800000,-12.4600000,5.0950000,0.000000,0,0,0
3.000,-0.0748000,-0.0473000,9.6122000,35.7513000,26.4587000,33.6990000,-40.2140000,-12.3560000,5.4040000,0.000000,0,0,0
3.010,-0.0652000,-0.0461000,9.6146000,35.7361000,26.3824000,33.5541000,-40.1750000,-12.5700000,5.7000000,0.000000,0,0,0
3.020,-0.0544000,-0.0425000,9.6146000,35.7056000,26.4664000,33.4244000,-40.3410000,-12.4500000,5.1340000,0.000000,0,0,0
3.030,-0.0425000,-0.0317000,9.6134000,35.6903000,26.6037000,33.3176000,-40.4630000,-12.4710000,5.2610000,0.000000,0,0,0
3.040,-0.0317000,-0.0197000,9.6110000,35.7285000,26.7487000,33.3023000,-40.1530000,-12.3970000,5.2320000,0.000000,0,0,0
3.050,-0.0221000,-0.0173000,9.6098000,35.7971000,26.9394000,33.4396000,-40.5940000,-12.0850000,5.3990000,0.000000,0,0,0
3.060,-0.0138000,-0.0257000,9.6110000,35.8429000,27.1912000,33.6838000,-40.3100000,-12.1730000,5.1590000,0.000000,0,0,0
3.070,-0.0054000,-0.0437000,9.6122000,35.8505000,27.5192000,33.8898000,-40.5110000,-11.9860000,4.6700000,0.000000,0,0,0
3.080,0.0006000,-0.0628000,9.6134000,35.8124000,27.9541000,33.9127000,-40.0700000,-12.3270000,5.1140000,0.000000,0,0,0
3.090,-0.0066000,-0.0748000,9.6146000,35.7208000,28.3966000,33.7753000,-40.5520000,-12.5310000,5.4350000,0.000000,0,0,0
3.100,-0.0209000,-0.0760000,9.6146000,35.6293000,28.7323000,33.5999000,-40.5320000,-12.4250000,4.9250000,0.000000,0,0,0
3.110,-0.0425000,-0.0664000,9.6122000,35.5682000,28.8696000,33.4854000,-40.6520000,-12.1580000,5.1420000,0.000000,0,0,0
3.120,-0.0640000,-0.0568000,9.6110000,35.5530000,28.7781000,33.4702000,-40.8480000,-12.2900000,4.5540000,0.000000,0,0,0
3.130,-0.0796000,-0.0484000,9.6074000,35.5682000,28.4958000,33.4854000,-40.4430000,-12.0260000,4.9880000,0.000000,0,0,0
3.140,-0.0796000,-0.0413000,9.6062000,35.6293000,28.0991000,33.3939000,-40.5850000,-12.2260000,4.5960000,0.000000,0,0,0
3.150,-0.0688000,-0.0317000,9.6062000,35.6674000,27.7328000,33.1497000,-40.5280000,-12.2400000,4.2410000,0.000000,0,0,0
3.160,-0.0556000,-0.0293000,9.6062000,35.6750000,27.5040000,32.8827000,-40.2990000,-12.3920000,4.7370000,0.000000,0,0,0
3.170,-0.0437000,-0.0389000,9.6086000,35.6674000,27.4506000,32.7682000,-40.3820000,-12.1090000,4.6600000,0.000000,0,0,0
3.180,-0.0341000,-0.0568000,9.6110000,35.6598000,27.6489000,33.0353000,-40.5140000,-12.3780000,4.9780000,0.000000,0,0,0
3.190,-0.0305000,-0.0652000,9.6134000,35.6598000,27.8397000,33.3176000,-40.5550000,-12.2960000,4.7460000,0.000000,0,0,0
3.200,-0.0329000,-0.0736000,9.6122000,35.6445000,28.0151000,33.5236000,-40.7220000,-12.3060000,4.5940000,0.000000,0,0,0
3.210,-0.0365000,-0.0772000,9.6122000,35.6216000,28.0838000,33.5464000,-40.5430000,-12.3710000,4.5710000,0.000000,0,0,0
3.220,-0.0449000,-0.0724000,9.6098000,35.6216000,27.9846000,33.4091000,-40.4370000,-12.3510000,5.1120000,0.000000,0,0,0
3.230,-0.0544000,-0.0628000,9.6086000,35.6369000,27.7405000,33.2108000,-40.5880000,-12.3080000,4.7070000,0.000000,0,0,0
3.240,-0.0592000,-0.0508000,9.6086000,35.6750000,27.4200000,33.0429000,-40.5600000,-12.0930000,4.2410000,0.000000,0,0,0
3.250,-0.0592000,-0.0377000,9.6074000,35.7437000,27.0615000,32.8827000,-40.5950000,-12.4730000,4.6390000,0.000000,0,0,0
3.260,-0.0568000,-0.0317000,9.6074000,35.7819000,26.7487000,32.7606000,-40.6050000,-12.3320000,5.4150000,0.000000,0,0,0
3.270,-0.0580000,-0.0377000,9.6074000,35.7361000,26.5121000,32.7148000,-40.5410000,-12.1250000,4.4870000,0.000000,0,0,0
3.280,-0.0580000,-0.0520000,9.6086000,35.6522000,26.3672000,32.7682000,-40.5460000,-12.4750000,4.3330000,0.000000,0,0,0
3.290,-0.0544000,-0.0580000,9.6098000,35.5377000,26.3672000,32.8903000,-40.5300000,-12.3870000,4.4830000,0.000000,0,0,0
3.300,-0.0461000,-0.0508000,9.6098000,35.4156000,26.4587000,33.0353000,-40.5760000,-12.3110000,4.5690000,0.000000,0,0,0
3.310,-0.0401000,-0.0449000,9.6098000,35.2936000,26.6190000,33.2947000,-40.4350000,-12.5220000,4.6700000,0.000000,0,0,0
3.320,-0.0389000,-0.0496000,9.6098000,35.2325000,26.8097000,33.7677000,-40.6870000,-12.2720000,4.2010000,0.000000,0,0,0
3.330,-0.0329000,-0.0592000,9.6098000,35.2402000,26.9928000,34.3399000,-40.8290000,-12.2850000,5.3850000,0.000000,0,0,0
3.340,-0.0281000,-0.0748000,9.6110000,35.3012000,27.1454000,34.7900000,-40.4360000,-12.3140000,5.4400000,0.000000,0,0,0
3.350,-0.0209000,-0.0891000,9.6110000,35.4156000,27.2598000,34.9274000,-40.3670000,-12.3240000,5.9670000,0.000000,0,0,0
3.360,-0.0150000,-0.0939000,9.6110000,35.5606000,27.3819000,34.7519000,-40.4670000,-12.6330000,5.1080000,0.000000,0,0,0
3.370,-0.0102000,-0.0819000,9.6110000,35.6827000,27.6184000,34.4162000,-40.3260000,-12.2040000,5.1640000,0.000000,0,0,0
3.380,-0.0078000,-0.0616000,9.6086000,35.7285000,27.9694000,34.0805000,-40.3720000,-12.2060000,5.2360000,0.000000,0,0,0
3.390,-0.0090000,-0.0413000,9.6062000,35.6827000,28.2974000,33.8364000,-40.6540000,-11.8360000,5.6270000,0.000000,0,0,0
3.400,-0.0161000,-0.0269000,9.6026000,35.6369000,28.4805000,33.7143000,-40.1510000,-12.1650000,5.5500000,0.000000,0,0,0
3.410,-0.0173000,-0.0209000,9.6002000,35.6445000,28.4348000,33.6380000,-40.1950000,-11.8780000,5.7440000,0.000000,0,0,0
3.420,-0.0197000,-0.0245000,9.6002000,35.6598000,28.2669000,33.5617000,-40.2020000,-12.0640000,6.0040000,0.000000,0,0,0
3.430,-0.0257000,-0.0341000,9.6026000,35.6369000,28.0838000,33.5846000,-40.4330000,-12.2460000,5.9780000,0.000000,0,0,0
3.440,-0.0329000,-0.0496000,9.6050000,35.6064000,27.9160000,33.7372000,-40.4200000,-12.1190000,5.6140000,0.000000,0,0,0
3.450,-0.0389000,-0.0664000,9.6074000,35.5835000,27.8091000,33.9203000,-40.3120000,-12.1180000,5.8890000,0.000000,0,0,0
3.460,-0.0425000,-0.0807000,9.6086000,35.5225000,27.7405000,34.0347000,-40.3660000,-12.3650000,5.2340000,0.000000,0,0,0
3.470,-0.0437000,-0.0903000,9.6098000,35.4767000,27.6566000,34.0195000,-40.0950000,-12.4100000,5.4650000,0.000000,0,0,0
3.480,-0.0425000,-0.0975000,9.6098000,35.5225000,27.5192000,33.8821000,-40.2080000,-12.4220000,5.4240000,0.000000,0,0,0
3.490,-0.0425000,-0.1083000,9.6086000,35.6674000,27.3666000,33.6456000,-40.6870000,-12.3640000,5.6030000,0.000000,0,0,0
3.500,-0.0437000,-0.1166000,9.6098000,35.8887000,27.1454000,33.2718000,-40.4610000,-12.1800000,4.5940000,0.000000,0,0,0
3.510,-0.0449000,-0.1095000,9.6110000,36.0718000,27.0309000,32.9285000,-40.2030000,-12.1800000,5.3890000,0.000000,0,0,0
3.520,-0.0425000,-0.0951000,9.6110000,36.1938000,26.9699000,32.8140000,-40.3980000,-12.1760000,5.7630000,0.000000,0,0,0
3.530,-0.0353000,-0.0867000,9.6074000,36.3464000,26.8860000,32.8827000,-40.2960000,-12.3810000,5.0570000,0.000000,0,0,0
3.540,-0.0221000,-0.0784000,9.6050000,36.5143000,26.6953000,32.8827000,-40.2250000,-12.3320000,4.7870000,0.000000,0,0,0
3.550,-0.0126000,-0.0640000,9.6050000,36.6440000,26.5808000,32.7148000,-40.3080000,-12.1430000,4.4300000,0.000000,0,0,0
3.560,-0.0161000,-0.0508000,9.6074000,36.6821000,26.6418000,32.6462000,-40.3900000,-12.3460000,3.9910000,0.000000,0,0,0
3.570,-0.0281000,-0.0449000,9.6110000,36.5906000,26.8860000,32.9208000,-40.5070000,-12.3710000,4.7570000,0.000000,0,0,0
3.580,-0.0365000,-0.0473000,9.6122000,36.4304000,27.1988000,33.4396000,-40.3800000,-12.2500000,4.9390000,0.000000,0,0,0
3.590,-0.0401000,-0.0532000,9.6110000,36.2396000,27.4582000,33.9661000,-40.2670000,-12.0790000,4.9060000,0.000000,0,0,0
3.600,-0.0401000,-0.0616000,9.6086000,36.0794000,27.5650000,34.3323000,-40.2500000,-12.0400000,4.7710000,0.000000,0,0,0
3.610,-0.0365000,-0.0712000,9.6074000,36.0413000,27.4582000,34.5383000,-40.4670000,-11.9000000,4.7980000,0.000000,0,0,0
3.620,-0.0257000,-0.0688000,9.6050000,36.0870000,27.2598000,34.6603000,-40.5330000,-12.2820000,4.6910000,0.000000,0,0,0
3.630,-0.0138000,-0.0532000,9.6026000,36.1481000,27.0309000,34.7519000,-40.2650000,-12.4510000,5.0570000,0.000000,0,0,0
3.640,0.0018000,-0.0365000,9.6026000,36.1710000,26.9012000,34.8740000,-40.2030000,-12.4170000,4.9860000,0.000000,0,0,0
3.650,0.0150000,-0.0305000,9.6014000,36.1557000,26.8707000,35.0266000,-40.1990000,-12.5860000,4.7690000,0.000000,0,0,0
3.660,0.0233000,-0.0377000,9.6014000,36.1328000,26.9318000,35.0952000,-40.3050000,-12.1110000,4.8270000,0.000000,0,0,0
3.670,0.0257000,-0.0413000,9.6026000,36.0565000,27.0844000,35.0266000,-40.2420000,-12.3930000,5.2140000,0.000000,0,0,0
3.680,0.0209000,-0.0389000,9.6050000,35.9268000,27.3132000,34.8206000,-40.3650000,-12.3290000,4.7020000,0.000000,0,0,0
3.690,0.0066000,-0.0317000,9.6050000,35.7895000,27.5192000,34.5993000,-40.3680000,-12.3240000,4.6830000,0.000000,0,0,0
3.700,-0.0090000,-0.0233000,9.6050000,35.6979000,27.6337000,34.4620000,-40.3470000,-12.5630000,4.7360000,0.000000,0,0,0
3.710,-0.0281000,-0.0209000,9.6050000,35.6293000,27.6108000,34.3246000,-40.0500000,-11.9690000,4.5140000,0.000000,0,0,0
3.720,-0.0353000,-0.0365000,9.6062000,35.6598000,27.4963000,34.2026000,-40.2140000,-12.1700000,4.9260000,0.000000,0,0,0
3.730,-0.0353000,-0.0568000,9.6074000,35.7742000,27.3361000,34.0424000,-40.3700000,-12.4050000,5.3910000,0.000000,0,0,0
3.740,-0.0245000,-0.0712000,9.6086000,35.8963000,27.2751000,33.9050000,-40.1330000,-11.9730000,4.7620000,0.000000,0,0,0
3.750,-0.0066000,-0.0760000,9.6086000,36.0260000,27.3209000,33.8440000,-40.1810000,-12.3300000,4.3460000,0.000000,0,0,0
3.760,0.0102000,-0.0736000,9.6098000,36.0947000,27.4506000,33.8516000,-40.2230000,-12.3660000,4.4670000,0.000000,0,0,0
3.770,0.0257000,-0.0652000,9.6098000,36.0870000,27.6413000,33.9127000,-40.1470000,-12.4330000,4.7940000,0.000000,0,0,0
3.780,0.0293000,-0.0604000,9.6074000,36.0107000,27.8473000,33.9890000,-39.9860000,-12.3360000,5.0010000,0.000000,0,0,0
3.790,0.0281000,-0.0628000,9.6062000,35.8963000,28.0304000,34.0195000,-39.9840000,-12.0840000,5.1380000,0.000000,0,0,0
3.800,0.0209000,-0.0724000,9.6062000,35.8047000,28.1677000,33.9890000,-40.0730000,-12.1000000,4.4410000,0.000000,0,0,0
3.810,0.0054000,-0.0819000,9.6074000,35.7513000,28.2822000,33.9661000,-40.5940000,-11.8750000,4.7640000,0.000000,0,0,0
3.820,-0.0078000,-0.0879000,9.6086000,35.7361000,28.3813000,33.9966000,-40.1100000,-11.9580000,4.9010000,0.000000,0,0,0
3.830,-0.0126000,-0.0855000,9.6074000,35.7285000,28.5034000,34.0500000,-40.3910000,-12.3330000,4.6180000,0.000000,0,0,0
3.840,-0.0078000,-0.0736000,9.6062000,35.7056000,28.6255000,34.0958000,-40.4960000,-12.3950000,4.9010000,0.000000,0,0,0
3.850,-0.0042000,-0.0568000,9.6038000,35.6598000,28.7247000,34.1415000,-40.3300000,-12.4950000,5.0540000,0.000000,0,0,0
3.860,-0.0018000,-0.0401000,9.6038000,35.6293000,28.8010000,34.1949000,-40.4830000,-11.8720000,4.8410000,0.000000,0,0,0
3.870,0.0006000,-0.0317000,9.6026000,35.6140000,28.8544000,34.2178000,-40.2220000,-12.1640000,4.5040000,0.000000,0,0,0
3.880,-0.0030000,-0.0293000,9.6014000,35.6064000,28.8849000,34.1721000,-40.3910000,-12.4630000,4.9200000,0.000000,0,0,0
3.890,-0.0078000,-0.0317000,9.6038000,35.6140000,28.9078000,33.9966000,-39.9320000,-12.3540000,5.1840000,0.000000,0,0,0
3.900,-0.0138000,-0.0377000,9.6062000,35.6216000,28.9459000,33.7601000,-40.1580000,-12.2650000,4.9680000,0.000000,0,0,0
3.910,-0.0150000,-0.0425000,9.6074000,35.6293000,28.9841000,33.5464000,-40.2980000,-12.2400000,4.7280000,0.000000,0,0,0
3.920,-0.0161000,-0.0449000,9.6074000,35.6522000,29.0298000,33.4625000,-40.4070000,-12.3050000,4.9850000,0.000000,0,0,0
3.930,-0.0161000,-0.0449000,9.6062000,35.6522000,29.0527000,33.5846000,-40.3050000,-12.7640000,4.6820000,0.000000,0,0,0
3.940,-0.0126000,-0.0437000,9.6062000,35.6674000,28.9993000,33.8516000,-40.4860000,-12.3780000,5.0990000,0.000000,0,0,0
3.950,-0.0078000,-0.0377000,9.6050000,35.6903000,28.9230000,34.1568000,-40.4010000,-12.2720000,4.8510000,0.000000,0,0,0
3.960,-0.0054000,-0.0281000,9.6038000,35.6827000,28.8925000,34.3933000,-40.3610000,-12.4050000,4.7510000,0.000000,0,0,0
3.970,-0.0066000,-0.0233000,9.6026000,35.6522000,28.9383000,34.4620000,-40.3310000,-12.0710000,5.0840000,0.000000,0,0,0
3.980,-0.0114000,-0.0281000,9.6026000,35.6064000,29.0070000,34.3704000,-40.1980000,-12.2980000,5.1430000,0.000000,0,0,0
3.990,-0.0197000,-0.0425000,9.6026000,35.5988000,28.9841000,34.1873000,-40.0640000,-12.0700000,4.6500000,0.000000,0,0,0
4.000,-0.0293000,-0.0580000,9.6050000,35.6369000,28.8467000,33.9737000,-40.3860000,-12.2060000,4.8660000,0.000000,0,0,0
4.010,-0.0413000,-0.0724000,9.6062000,35.6674000,28.6713000,33.8593000,-40.2220000,-12.3570000,5.0550000,0.000000,0,0,0
4.020,-0.0484000,-0.0855000,9.6086000,35.6674000,28.5263000,33.8516000,-40.4520000,-12.4010000,4.6640000,0.000000,0,0,0
4.030,-0.0437000,-0.0891000,9.6086000,35.6445000,28.3966000,33.8745000,-40.1100000,-12.3230000,4.4180000,0.000000,0,0,0
4.040,-0.0341000,-0.0831000,9.6074000,35.6064000,28.2822000,33.8898000,-40.2320000,-12.3610000,4.9310000,0.000000,0,0,0
4.050,-0.0293000,-0.0748000,9.6062000,35.5911000,28.2135000,33.9127000,-40.3720000,-12.3420000,4.9470000,0.000000,0,0,0
4.060,-0.0257000,-0.0712000,9.6050000,35.6293000,28.2440000,33.8516000,-40.2460000,-12.5250000,4.1090000,0.000000,0,0,0
4.070,-0.0209000,-0.0760000,9.6074000,35.7056000,28.4424000,33.5083000,-40.3070000,-12.2350000,4.8740000,0.000000,0,0,0
4.080,-0.0221000,-0.0796000,9.6134000,35.7513000,28.8849000,32.7759000,-40.1850000,-12.3850000,4.8170000,0.000000,0,0,0
4.090,-0.0341000,-0.0891000,9.6182000,35.7056000,29.6249000,31.6544000,-40.1890000,-11.9510000,4.6010000,0.000000,0,0,0
4.100,-0.0473000,-0.1047000,9.6218000,35.6216000,30.5023000,30.2582000,-40.2080000,-12.2000000,4.7060000,0.000000,0,0,0
4.110,-0.0628000,-0.1107000,9.6206000,35.5530000,31.2042000,28.9154000,-40.0340000,-11.9240000,4.5360000,0.000000,0,0,0
4.120,-0.0748000,-0.0963000,9.6170000,35.5453000,31.5247000,28.0991000,-40.0910000,-11.9900000,4.3070000,0.000000,0,0,0
4.130,-0.0796000,-0.0604000,9.6098000,35.5682000,31.3721000,28.1448000,-40.1180000,-12.3970000,4.5140000,0.000000,0,0,0
4.140,-0.0724000,-0.0150000,9.6026000,35.6064000,30.8533000,28.9841000,-39.9790000,-12.5460000,4.8770000,0.000000,0,0,0
4.150,-0.0544000,0.0197000,9.5990000,35.6674000,30.1208000,30.2353000,-40.0300000,-12.2580000,4.9520000,0.000000,0,0,0
4.160,-0.0329000,0.0413000,9.5966000,35.7361000,29.3732000,31.4941000,-40.0810000,-12.0860000,4.6050000,0.000000,0,0,0
4.170,-0.0138000,0.0532000,9.5954000,35.7742000,28.7170000,32.5623000,-39.8950000,-12.1590000,4.0300000,0.000000,0,0,0
4.180,-0.0138000,0.0473000,9.5966000,35.7895000,28.1830000,33.4396000,-39.9850000,-12.3430000,4.7740000,0.000000,0,0,0
4.190,-0.0305000,0.0209000,9.6014000,35.7895000,27.7863000,34.2026000,-39.8020000,-12.4750000,4.8810000,0.000000,0,0,0
4.200,-0.0616000,-0.0161000,9.6074000,35.8047000,27.5192000,34.8587000,-39.8970000,-12.3260000,4.5750000,0.000000,0,0,0
4.210,-0.0951000,-0.0437000,9.6146000,35.8658000,27.3972000,35.3775000,-40.0190000,-12.4490000,4.6040000,0.000000,0,0,0
4.220,-0.1238000,-0.0712000,9.6194000,35.9650000,27.4277000,35.7666000,-40.3670000,-12.1070000,4.2950000,0.000000,0,0,0
4.230,-0.1406000,-0.1107000,9.6206000,36.0336000,27.4353000,35.9421000,-40.3290000,-12.2930000,3.6790000,0.000000,0,0,0
4.240,-0.1418000,-0.1418000,9.6206000,36.0184000,27.4124000,35.7208000,-40.1750000,-12.1960000,4.8370000,0.000000,0,0,0
4.250,-0.1346000,-0.1621000,9.6218000,35.9726000,27.4124000,35.1715000,-40.0070000,-12.3580000,5.0590000,0.000000,0,0,0
4.260,-0.1071000,-0.1609000,9.6194000,35.9650000,27.4963000,34.2941000,-40.1100000,-12.1870000,4.7340000,0.000000,0,0,0
4.270,-0.0855000,-0.1430000,9.6182000,35.9955000,27.5574000,33.9127000,-39.9050000,-12.1970000,4.5480000,0.000000,0,0,0
4.280,-0.0616000,-0.1154000,9.6158000,36.0413000,27.5879000,33.7296000,-39.9600000,-12.3740000,4.3870000,0.000000,0,0,0
4.290,-0.0437000,-0.0879000,9.6134000,36.0489000,27.6337000,33.7067000,-40.1660000,-12.2080000,5.1200000,0.000000,0,0,0
4.300,-0.0341000,-0.0652000,9.6098000,36.0413000,27.6794000,33.7753000,-39.8930000,-12.0410000,4.7030000,0.000000,0,0,0
4.310,-0.0329000,-0.0508000,9.6086000,36.0336000,27.7328000,33.8974000,-40.1430000,-12.0920000,4.6880000,0.000000,0,0,0
4.320,-0.0389000,-0.0425000,9.6086000,36.0031000,27.7939000,34.0347000,-40.0710000,-12.3000000,4.3710000,0.000000,0,0,0
4.330,-0.0508000,-0.0425000,9.6098000,35.9650000,27.8931000,34.1721000,-39.8670000,-12.0440000,4.6840000,0.000000,0,0,0
4.340,-0.0616000,-0.0437000,9.6110000,35.9192000,27.9922000,34.2636000,-39.9100000,-11.9290000,4.5980000,0.000000,0,0,0
4.350,-0.0736000,-0.0449000,9.6110000,35.8582000,28.1067000,34.3094000,-39.9260000,-12.0750000,4.3140000,0.000000,0,0,0
4.360,-0.0831000,-0.0484000,9.6122000,35.7819000,28.1982000,34.2865000,-39.9580000,-12.2580000,4.9720000,0.000000,0,0,0
4.370,-0.0891000,-0.0484000,9.6110000,35.7285000,28.2516000,34.2102000,-39.9460000,-12.3820000,4.3210000,0.000000,0,0,0
4.380,-0.0915000,-0.0449000,9.6122000,35.7132000,28.2440000,34.1492000,-40.0400000,-12.0020000,4.2960000,0.000000,0,0,0
4.390,-0.0879000,-0.0377000,9.6146000,35.7437000,28.1982000,34.1492000,-39.9460000,-12.1960000,4.5640000,0.000000,0,0,0
4.400,-0.0760000,-0.0293000,9.6146000,35.7437000,28.1982000,34.2026000,-40.1640000,-12.2130000,5.0490000,0.000000,0,0,0
4.410,-0.0592000,-0.0257000,9.6122000,35.6979000,28.2593000,34.1873000,-40.0880000,-12.2370000,5.0740000,0.000000,0,0,0
4.420,-0.0473000,-0.0245000,9.6098000,35.6293000,28.3585000,34.0500000,-40.0820000,-12.1460000,5.3320000,0.000000,0,0,0
4.430,-0.0473000,-0.0305000,9.6086000,35.5453000,28.4653000,33.8593000,-40.0420000,-12.3130000,4.2730000,0.000000,0,0,0
4.440,-0.0592000,-0.0413000,9.6086000,35.4767000,28.5492000,33.6838000,-40.0370000,-12.0860000,5.0020000,0.000000,0,0,0
4.450,-0.0784000,-0.0556000,9.6098000,35.4614000,28.5110000,33.5693000,-39.8940000,-12.1140000,4.9910000,0.000000,0,0,0
4.460,-0.0999000,-0.0676000,9.6098000,35.4996000,28.3203000,33.5770000,-40.0960000,-12.2020000,4.6080000,0.000000,0,0,0
4.470,-0.1142000,-0.0724000,9.6122000,35.5835000,28.0838000,33.7296000,-40.0570000,-12.3500000,5.3790000,0.000000,0,0,0
4.480,-0.1166000,-0.0748000,9.6146000,35.6750000,27.9694000,33.9203000,-40.1120000,-12.2390000,5.1790000,0.000000,0,0,0
4.490,-0.1047000,-0.0831000,9.6182000,35.7361000,28.0609000,33.9890000,-40.0850000,-12.1920000,5.2430000,0.000000,0,0,0
4.500,-0.0879000,-0.0927000,9.6182000,35.7285000,28.2822000,33.8745000,-39.9230000,-12.4750000,5.3490000,0.000000,0,0,0
4.510,-0.0712000,-0.0939000,9.6170000,35.6445000,28.5645000,33.5999000,-39.8000000,-12.1350000,5.7310000,0.000000,0,0,0
4.520,-0.0580000,-0.0879000,9.6146000,35.5148000,28.7933000,33.2718000,-39.7200000,-12.4360000,5.5030000,0.000000,0,0,0
4.530,-0.0604000,-0.0736000,9.6122000,35.3699000,28.8467000,33.0505000,-40.0130000,-12.2420000,5.9410000,0.000000,0,0,0
4.540,-0.0676000,-0.0520000,9.6098000,35.2783000,28.6789000,33.0124000,-40.1950000,-12.2720000,5.0460000,0.000000,0,0,0
4.550,-0.0831000,-0.0377000,9.6098000,35.2707000,28.3279000,33.1497000,-40.3330000,-12.1890000,5.1740000,0.000000,0,0,0
4.560,-0.0987000,-0.0341000,9.6122000,35.3775000,27.8778000,33.3862000,-40.1160000,-12.4230000,4.9240000,0.000000,0,0,0
4.570,-0.1107000,-0.0389000,9.6182000,35.5301000,27.5192000,33.6075000,-39.9700000,-12.2130000,5.0050000,0.000000,0,0,0
4.580,-0.1154000,-0.0377000,9.6206000,35.6979000,27.3666000,33.7601000,-39.9500000,-12.2780000,4.8690000,0.000000,0,0,0
4.590,-0.1154000,-0.0508000,9.6194000,35.8047000,27.3209000,33.9050000,-39.8960000,-12.0660000,5.3050000,0.000000,0,0,0
4.600,-0.1059000,-0.0676000,9.6170000,35.8582000,27.2903000,33.9966000,-40.0490000,-11.8520000,4.8240000,0.000000,0,0,0
4.610,-0.0915000,-0.0819000,9.6170000,35.8963000,27.2751000,33.9890000,-40.0100000,-12.0870000,5.4790000,0.000000,0,0,0
4.620,-0.0819000,-0.0999000,9.6194000,35.9421000,27.3514000,33.9432000,-39.7210000,-11.9980000,5.3070000,0.000000,0,0,0
4.630,-0.0772000,-0.1154000,9.6218000,35.9726000,27.5421000,33.8440000,-40.1160000,-12.2860000,4.9180000,0.000000,0,0,0
4.640,-0.0688000,-0.1190000,9.6229000,35.9573000,27.8091000,33.6380000,-39.8080000,-12.1650000,5.4190000,0.000000,0,0,0
4.650,-0.0604000,-0.1071000,9.6206000,35.8810000,28.0838000,33.4015000,-40.0270000,-12.4060000,5.3380000,0.000000,0,0,0
4.660,-0.0580000,-0.0879000,9.6170000,35.7971000,28.2364000,33.2718000,-40.0350000,-12.2270000,4.8170000,0.000000,0,0,0
4.670,-0.0604000,-0.0652000,9.6134000,35.7437000,28.2593000,33.3099000,-40.0550000,-12.4550000,5.8170000,0.000000,0,0,0
4.680,-0.0676000,-0.0461000,9.6134000,35.7437000,28.2288000,33.4702000,-39.8780000,-12.2980000,5.1580000,0.000000,0,0,0
4.690,-0.0784000,-0.0353000,9.6122000,35.7742000,28.2211000,33.6990000,-40.1920000,-12.3990000,5.1860000,0.000000,0,0,0
4.700,-0.0903000,-0.0353000,9.6134000,35.7971000,28.2059000,33.9661000,-39.9410000,-12.4280000,5.4240000,0.000000,0,0,0
4.710,-0.0975000,-0.0437000,9.6134000,35.8124000,28.1830000,34.1339000,-40.0530000,-12.4100000,5.1860000,0.000000,0,0,0
4.720,-0.1035000,-0.0532000,9.6134000,35.8124000,28.1601000,34.1339000,-39.8060000,-12.5010000,5.3060000,0.000000,0,0,0
4.730,-0.1107000,-0.0592000,9.6146000,35.7895000,28.1296000,34.0424000,-39.7000000,-12.4290000,4.9880000,0.000000,0,0,0
4.740,-0.1154000,-0.0652000,9.6158000,35.7742000,28.1296000,33.9203000,-39.7470000,-12.1680000,4.7410000,0.000000,0,0,0
4.750,-0.1142000,-0.0688000,9.6158000,35.7513000,28.1830000,33.7524000,-39.9630000,-12.2560000,4.9260000,0.000000,0,0,0
4.760,-0.1119000,-0.0700000,9.6170000,35.7361000,28.2822000,33.5693000,-40.1260000,-12.0950000,4.8830000,0.000000,0,0,0
4.770,-0.1071000,-0.0676000,9.6146000,35.7513000,28.3051000,33.4778000,-40.1250000,-12.1150000,5.2880000,0.000000,0,0,0
4.780,-0.0987000,-0.0628000,9.6134000,35.8047000,28.2211000,33.5236000,-40.0320000,-12.4530000,4.7750000,0.000000,0,0,0
4.790,-0.0879000,-0.0544000,9.6122000,35.8734000,28.0838000,33.6838000,-40.1680000,-12.2750000,5.0220000,0.000000,0,0,0
4.800,-0.0784000,-0.0544000,9.6134000,35.9192000,27.9846000,33.9127000,-40.0390000,-12.1160000,4.8360000,0.000000,0,0,0
4.810,-0.0688000,-0.0592000,9.6146000,35.9268000,27.9770000,34.1034000,-40.0180000,-12.2110000,4.3730000,0.000000,0,0,0
4.820,-0.0640000,-0.0819000,9.6134000,35.8810000,28.2059000,34.0729000,-39.9240000,-12.1520000,4.8430000,0.000000,0,0,0
4.830,-0.0700000,-0.1011000,9.6134000,35.8200000,28.3966000,33.8516000,-40.1620000,-12.1170000,5.3610000,0.000000,0,0,0
4.840,-0.0843000,-0.1083000,9.6158000,35.7971000,28.4882000,33.6456000,-39.9540000,-12.2830000,4.6050000,0.000000,0,0,0
4.850,-0.0951000,-0.0987000,9.6170000,35.7742000,28.5645000,33.5693000,-39.8350000,-12.3570000,5.1550000,0.000000,0,0,0
4.860,-0.1059000,-0.0891000,9.6170000,35.7361000,28.5950000,33.5846000,-39.7190000,-12.3130000,4.5030000,0.000000,0,0,0
4.870,-0.1059000,-0.0831000,9.6158000,35.7285000,28.5492000,33.6533000,-39.8840000,-12.2330000,4.2380000,0.000000,0,0,0
4.880,-0.1083000,-0.0772000,9.6158000,35.7666000,28.3966000,33.6990000,-39.5650000,-12.2430000,4.6550000,0.000000,0,0,0
4.890,-0.1059000,-0.0736000,9.6170000,35.8276000,28.2135000,33.6914000,-39.7860000,-12.5880000,4.6430000,0.000000,0,0,0
4.900,-0.1047000,-0.0736000,9.6182000,35.8734000,28.0457000,33.5617000,-40.0760000,-12.3110000,5.0230000,0.000000,0,0,0
4.910,-0.1059000,-0.0784000,9.6194000,35.8963000,27.9922000,33.2718000,-39.6740000,-12.3110000,4.8020000,0.000000,0,0,0
4.920,-0.1083000,-0.0819000,9.6206000,35.8963000,28.0991000,32.8293000,-40.1980000,-12.1030000,5.6840000,0.000000,0,0,0
4.930,-0.1059000,-0.0819000,9.6206000,35.8887000,28.3279000,32.3105000,-39.9750000,-11.9510000,5.2780000,0.000000,0,0,0
4.940,-0.0987000,-0.0760000,9.6182000,35.8887000,28.5568000,31.8375000,-40.1480000,-12.1090000,4.6850000,0.000000,0,0,0
4.950,-0.0879000,-0.0724000,9.6158000,35.8734000,28.7094000,31.4484000,-40.2260000,-11.9730000,4.4320000,0.000000,0,0,0
4.960,-0.0748000,-0.0724000,9.6158000,35.8582000,28.7781000,31.0745000,-39.7390000,-12.1950000,4.9290000,0.000000,0,0,0
4.970,-0.0712000,-0.0640000,9.6158000,35.8429000,28.7323000,30.7846000,-39.7480000,-12.1110000,3.9340000,0.000000,0,0,0
4.980,-0.0748000,-0.0508000,9.6146000,35.8353000,28.5568000,30.7236000,-40.1100000,-11.9780000,4.3500000,0.000000,0,0,0
4.990,-0.0796000,-0.0401000,9.6122000,35.8429000,28.2516000,30.9525000,-40.1390000,-12.1880000,4.4160000,0.000000,0,0,0
5.000,-0.0867000,-0.0341000,9.6110000,35.8963000,27.7939000,31.4865000,-40.3060000,-12.4860000,4.6190000,0.000000,0,0,0
5.010,-0.0987000,-0.0281000,9.6098000,35.9955000,27.2980000,32.2418000,-40.0930000,-12.0270000,4.6250000,0.000000,0,0,0
5.020,-0.1107000,-0.0269000,9.6098000,36.0718000,26.9089000,33.0048000,-39.8560000,-12.4070000,4.9170000,0.000000,0,0,0
5.030,-0.1178000,-0.0341000,9.6122000,36.1023000,26.7715000,33.5312000,-39.9480000,-11.9680000,5.1310000,0.000000,0,0,0
5.040,-0.1178000,-0.0437000,9.6146000,36.0718000,26.9089000,33.6990000,-39.8210000,-11.9040000,5.0880000,0.000000,0,0,0
5.050,-0.1250000,-0.0556000,9.6170000,35.9726000,27.2217000,33.6227000,-39.7770000,-12.0400000,5.5620000,0.000000,0,0,0
5.060,-0.1334000,-0.0736000,9.6218000,35.8582000,27.6184000,33.4320000,-39.7280000,-12.0260000,5.6590000,0.000000,0,0,0
5.070,-0.1382000,-0.0927000,9.6241000,35.7513000,28.0151000,33.2642000,-39.7220000,-11.9410000,5.5820000,0.000000,0,0,0
5.080,-0.1394000,-0.1071000,9.6229000,35.6750000,28.2669000,33.1879000,-39.7220000,-11.5820000,4.9640000,0.000000,0,0,0
5.090,-0.1346000,-0.1107000,9.6218000,35.6522000,28.2822000,33.2413000,-39.9120000,-11.6140000,4.4300000,0.000000,0,0,0
5.100,-0.1226000,-0.1023000,9.6206000,35.7132000,28.1067000,33.4167000,-40.0380000,-11.7120000,5.0880000,0.000000,0,0,0
5.110,-0.1071000,-0.0855000,9.6182000,35.7895000,27.8625000,33.6609000,-39.8840000,-11.7230000,4.6640000,0.000000,0,0,0
5.120,-0.0903000,-0.0676000,9.6170000,35.8276000,27.6718000,33.8516000,-40.0060000,-12.0470000,4.1240000,0.000000,0,0,0
5.130,-0.0784000,-0.0556000,9.6170000,35.8353000,27.6031000,33.9508000,-40.2210000,-12.0110000,4.7400000,0.000000,0,0,0
5.140,-0.0772000,-0.0508000,9.6158000,35.8124000,27.6260000,34.0271000,-39.6590000,-11.8140000,4.5930000,0.000000,0,0,0
5.150,-0.0843000,-0.0496000,9.6146000,35.7895000,27.6108000,34.1644000,-39.7640000,-12.0410000,4.1380000,0.000000,0,0,0
5.160,-0.0975000,-0.0532000,9.6158000,35.7971000,27.4887000,34.4543000,-39.8870000,-12.1000000,5.0690000,0.000000,0,0,0
5.170,-0.1047000,-0.0520000,9.6170000,35.8505000,27.3132000,34.8358000,-39.9250000,-11.8940000,4.4610000,0.000000,0,0,0
5.180,-0.1011000,-0.0461000,9.6182000,35.8887000,27.1835000,35.1257000,-39.9570000,-11.9190000,5.2820000,0.000000,0,0,0
5.190,-0.0903000,-0.0353000,9.6182000,35.8658000,27.1454000,35.2325000,-39.9530000,-12.2100000,5.2330000,0.000000,0,0,0
5.200,-0.0748000,-0.0257000,9.6182000,35.8124000,27.1606000,35.1486000,-39.8380000,-11.9870000,4.6620000,0.000000,0,0,0
5.210,-0.0664000,-0.0209000,9.6158000,35.7590000,27.1225000,34.9503000,-40.0610000,-12.0800000,4.2970000,0.000000,0,0,0
5.220,-0.0676000,-0.0245000,9.6134000,35.7132000,27.0081000,34.6909000,-39.8520000,-12.4470000,4.1800000,0.000000,0,0,0
5.230,-0.0807000,-0.0365000,9.6134000,35.7361000,26.8021000,34.4238000,-39.8330000,-11.8730000,4.1250000,0.000000,0,0,0
5.240,-0.1023000,-0.0556000,9.6146000,35.8200000,26.5656000,34.1949000,-39.9600000,-12.0220000,4.3480000,0.000000,0,0,0
5.250,-0.1190000,-0.0772000,9.6182000,35.9573000,26.4206000,33.9355000,-39.9460000,-12.3390000,4.1970000,0.000000,0,0,0
5.260,-0.1334000,-0.0951000,9.6206000,36.1099000,26.4511000,33.6609000,-40.2170000,-11.9710000,4.5530000,0.000000,0,0,0
5.270,-0.1430000,-0.1059000,9.6206000,36.1633000,26.6113000,33.4549000,-40.0700000,-12.0040000,4.8240000,0.000000,0,0,0
5.280,-0.1453000,-0.1142000,9.6194000,36.1557000,26.7792000,33.4091000,-40.2130000,-11.8740000,4.4530000,0.000000,0,0,0
5.290,-0.1298000,-0.1166000,9.6182000,36.1481000,26.9318000,33.5159000,-39.9220000,-12.1780000,4.5180000,0.000000,0,0,0
5.300,-0.1047000,-0.1071000,9.6146000,36.1328000,27.0538000,33.6761000,-40.0560000,-12.0460000,4.6810000,0.000000,0,0,0
5.310,-0.0784000,-0.0915000,9.6146000,36.0947000,27.1835000,33.8669000,-39.8650000,-11.9910000,4.9670000,0.000000,0,0,0
5.320,-0.0580000,-0.0819000,9.6134000,36.0336000,27.3590000,34.0347000,-40.0270000,-11.9740000,4.9200000,0.000000,0,0,0
5.330,-0.0449000,-0.0807000,9.6134000,35.9497000,27.5879000,34.1187000,-39.6920000,-12.3930000,4.8390000,0.000000,0,0,0
5.340,-0.0425000,-0.0807000,9.6122000,35.8810000,27.8168000,34.1568000,-39.8580000,-11.9830000,4.7070000,0.000000,0,0,0
5.350,-0.0508000,-0.0807000,9.6110000,35.8353000,27.9236000,34.2331000,-39.9340000,-12.0680000,4.1600000,0.000000,0,0,0
5.360,-0.0628000,-0.0760000,9.6122000,35.8429000,27.8549000,34.3933000,-39.8480000,-12.1610000,4.7600000,0.000000,0,0,0
5.370,-0.0724000,-0.0580000,9.6122000,35.9573000,27.6489000,34.6985000,-39.9620000,-12.2040000,4.5360000,0.000000,0,0,0
5.380,-0.0712000,-0.0437000,9.6110000,36.0413000,27.6184000,34.7900000,-39.8990000,-12.2630000,4.3570000,0.000000,0,0,0
5.390,-0.0664000,-0.0305000,9.6122000,36.0718000,27.7176000,34.7137000,-39.9680000,-12.1890000,4.6650000,0.000000,0,0,0
5.400,-0.0628000,-0.0221000,9.6134000,36.0184000,27.9083000,34.5001000,-39.9510000,-12.2000000,4.0370000,0.000000,0,0,0
5.410,-0.0652000,-0.0245000,9.6122000,35.9268000,28.1219000,34.2026000,-40.1700000,-11.9320000,4.3720000,0.000000,0,0,0
5.420,-0.0724000,-0.0377000,9.6110000,35.8505000,28.2974000,33.9203000,-39.8390000,-12.1380000,3.9320000,0.000000,0,0,0
5.430,-0.0831000,-0.0532000,9.6122000,35.7971000,28.3890000,33.7219000,-39.8370000,-12.0790000,4.2320000,0.000000,0,0,0
5.440,-0.0951000,-0.0688000,9.6134000,35.7819000,28.4042000,33.6533000,-39.9860000,-12.1420000,4.5370000,0.000000,0,0,0
5.450,-0.1011000,-0.0807000,9.6146000,35.8047000,28.3356000,33.7296000,-39.7140000,-12.1780000,3.7860000,0.000000,0,0,0
5.460,-0.0975000,-0.0819000,9.6146000,35.8276000,28.2440000,33.9050000,-40.0640000,-11.9760000,4.1590000,0.000000,0,0,0
5.470,-0.0903000,-0.0784000,9.6146000,35.8582000,28.1296000,34.0729000,-39.8100000,-12.0240000,4.3830000,0.000000,0,0,0
5.480,-0.0843000,-0.0736000,9.6158000,35.8887000,28.0304000,34.2102000,-40.1170000,-12.0000000,4.1200000,0.000000,0,0,0
5.490,-0.0772000,-0.0688000,9.6158000,35.9039000,27.9922000,34.2636000,-40.0550000,-12.0680000,4.3790000,0.000000,0,0,0
5.500,-0.0724000,-0.0688000,9.6158000,35.9116000,28.0380000,34.2331000,-39.7230000,-11.9700000,4.2430000,0.000000,0,0,0
5.510,-0.0700000,-0.0700000,9.6146000,35.9039000,28.1143000,34.1187000,-40.1530000,-12.0580000,4.5360000,0.000000,0,0,0
5.520,-0.0700000,-0.0676000,9.6134000,35.8963000,28.1754000,33.9737000,-39.8650000,-11.8050000,5.3050000,0.000000,0,0,0
5.530,-0.0760000,-0.0616000,9.6134000,35.8582000,28.1830000,33.8287000,-39.4910000,-11.8380000,5.2760000,0.000000,0,0,0
5.540,-0.0819000,-0.0580000,9.6134000,35.7895000,28.1296000,33.6761000,-39.6450000,-12.3460000,4.6250000,0.000000,0,0,0
5.550,-0.0843000,-0.0556000,9.6134000,35.7285000,28.0533000,33.4930000,-39.7290000,-11.9270000,4.5710000,0.000000,0,0,0
5.560,-0.0855000,-0.0461000,9.6134000,35.6598000,27.9922000,33.3023000,-40.0900000,-12.0160000,5.1220000,0.000000,0,0,0
5.570,-0.0867000,-0.0353000,9.6146000,35.5606000,27.9999000,33.1192000,-39.7950000,-12.2590000,4.5920000,0.000000,0,0,0
5.580,-0.0855000,-0.0293000,9.6158000,35.4614000,28.0609000,32.9666000,-39.6180000,-12.1970000,4.8980000,0.000000,0,0,0
5.590,-0.0855000,-0.0281000,9.6146000,35.4080000,28.1296000,32.8903000,-39.7290000,-12.0770000,4.8200000,0.000000,0,0,0
5.600,-0.0891000,-0.0257000,9.6146000,35.4309000,28.2059000,32.8979000,-39.9440000,-12.0060000,4.8960000,0.000000,0,0,0
5.610,-0.0939000,-0.0269000,9.6146000,35.4767000,28.2745000,33.0276000,-40.0800000,-12.0500000,4.1310000,0.000000,0,0,0
5.620,-0.0963000,-0.0341000,9.6146000,35.4919000,28.2822000,33.1955000,-40.1010000,-12.0410000,4.3640000,0.000000,0,0,0
5.630,-0.0975000,-0.0473000,9.6134000,35.4919000,28.2745000,33.3405000,-39.8850000,-12.2920000,4.4700000,0.000000,0,0,0
5.640,-0.0963000,-0.0604000,9.6122000,35.4691000,28.2745000,33.4015000,-39.7450000,-12.1020000,4.7920000,0.000000,0,0,0
5.650,-0.0891000,-0.0736000,9.6110000,35.4462000,28.2974000,33.3786000,-39.8130000,-12.2490000,4.6770000,0.000000,0,0,0
5.660,-0.0807000,-0.0831000,9.6134000,35.4538000,28.2898000,33.3481000,-39.6080000,-12.2000000,4.7130000,0.000000,0,0,0
5.670,-0.0772000,-0.0903000,9.6158000,35.4767000,28.2745000,33.3862000,-39.9470000,-12.1460000,5.0290000,0.000000,0,0,0
5.680,-0.0819000,-0.0975000,9.6170000,35.4385000,28.2440000,33.4854000,-40.0350000,-12.1700000,4.8340000,0.000000,0,0,0
5.690,-0.0891000,-0.1059000,9.6158000,35.3699000,28.2059000,33.6151000,-40.1490000,-11.9390000,5.1670000,0.000000,0,0,0
5.700,-0.0951000,-0.1071000,9.6158000,35.3012000,28.1982000,33.6761000,-40.1290000,-12.2210000,4.5830000,0.000000,0,0,0
5.710,-0.1023000,-0.0999000,9.6158000,35.2707000,28.2135000,33.6533000,-39.7250000,-12.3970000,4.4070000,0.000000,0,0,0
5.720,-0.1142000,-0.0915000,9.6170000,35.2707000,28.2059000,33.5999000,-39.8970000,-12.2970000,5.1830000,0.000000,0,0,0
5.730,-0.1262000,-0.0819000,9.6158000,35.3241000,28.1219000,33.5846000,-39.8080000,-12.2360000,4.8390000,0.000000,0,0,0
5.740,-0.1298000,-0.0784000,9.6158000,35.4080000,27.9312000,33.6151000,-40.1370000,-12.1860000,4.6360000,0.000000,0,0,0
5.750,-0.1262000,-0.0796000,9.6146000,35.4767000,27.6337000,33.6838000,-40.1400000,-12.2030000,4.8210000,0.000000,0,0,0
5.760,-0.1190000,-0.0843000,9.6134000,35.5225000,27.3285000,33.7524000,-39.6740000,-11.8210000,4.6220000,0.000000,0,0,0
5.770,-0.1071000,-0.0903000,9.6134000,35.5682000,27.1301000,33.7830000,-39.7880000,-12.2520000,4.4060000,0.000000,0,0,0
5.780,-0.0915000,-0.0963000,9.6158000,35.6445000,27.1225000,33.7143000,-39.9360000,-12.3430000,4.4920000,0.000000,0,0,0
5.790,-0.0736000,-0.1035000,9.6182000,35.7437000,27.2980000,33.5236000,-40.0770000,-12.2330000,4.4700000,0.000000,0,0,0
5.800,-0.0652000,-0.1059000,9.6194000,35.8276000,27.5574000,33.3099000,-40.0480000,-12.1250000,4.2330000,0.000000,0,0,0
5.810,-0.0616000,-0.1035000,9.6182000,35.9116000,27.7786000,33.1879000,-39.8570000,-12.0910000,4.5570000,0.000000,0,0,0
5.820,-0.0616000,-0.0963000,9.6170000,35.9802000,27.9694000,33.1497000,-40.0230000,-12.0570000,4.8690000,0.000000,0,0,0
5.830,-0.0628000,-0.0879000,9.6158000,35.9879000,28.1372000,33.1421000,-40.1130000,-12.0960000,4.8930000,0.000000,0,0,0
5.840,-0.0700000,-0.0796000,9.6134000,35.9650000,28.2211000,33.1726000,-40.1560000,-12.1550000,4.8900000,0.000000,0,0,0
5.850,-0.0796000,-0.0724000,9.6122000,35.9421000,28.2059000,33.2642000,-40.1530000,-12.1580000,4.5330000,0.000000,0,0,0
5.860,-0.0831000,-0.0580000,9.6122000,35.9192000,28.1525000,33.4167000,-40.1580000,-11.9250000,4.7870000,0.000000,0,0,0
5.870,-0.0819000,-0.0389000,9.6134000,35.8429000,28.1067000,33.5693000,-40.0960000,-12.1020000,5.2810000,0.000000,0,0,0
5.880,-0.0855000,-0.0233000,9.6146000,35.7208000,28.0457000,33.7296000,-39.8210000,-12.3650000,5.2280000,0.000000,0,0,0
5.890,-0.0903000,-0.0114000,9.6134000,35.5835000,27.9160000,33.9203000,-40.2500000,-11.8170000,4.3780000,0.000000,0,0,0
5.900,-0.0975000,-0.0114000,9.6122000,35.4614000,27.7328000,34.1187000,-40.0040000,-12.0670000,4.4870000,0.000000,0,0,0
5.910,-0.1023000,-0.0221000,9.6122000,35.4004000,27.5497000,34.2407000,-40.0110000,-12.3830000,5.1240000,0.000000,0,0,0
5.920,-0.1059000,-0.0377000,9.6110000,35.4080000,27.3590000,34.3094000,-40.1180000,-12.4970000,5.1170000,0.000000,0,0,0
5.930,-0.1035000,-0.0604000,9.6098000,35.4691000,27.1759000,34.3781000,-40.1000000,-12.5020000,4.5070000,0.000000,0,0,0
5.940,-0.0891000,-0.0927000,9.6158000,35.7208000,27.0386000,34.4391000,-40.1920000,-12.0610000,4.6570000,0.000000,0,0,0
5.950,-0.0724000,-0.1047000,9.6182000,35.8124000,27.2369000,34.3781000,-40.0800000,-12.0840000,4.9440000,0.000000,0,0,0
5.960,-0.0568000,-0.1154000,9.6194000,35.8124000,27.5726000,34.1949000,-40.3630000,-12.1400000,5.0540000,0.000000,0,0,0
5.970,-0.0508000,-0.1226000,9.6182000,35.8200000,27.9541000,33.9432000,-40.0300000,-12.4310000,4.8520000,0.000000,0,0,0
5.980,-0.0568000,-0.1262000,9.6170000,35.8429000,28.2898000,33.7219000,-40.0450000,-12.1720000,4.9490000,0.000000,0,0,0
5.990,-0.0700000,-0.1250000,9.6170000,35.8582000,28.5416000,33.5388000,-40.1120000,-12.1830000,5.1060000,0.000000,0,0,0
6.000,-0.0831000,-0.1166000,9.6170000,35.8810000,28.6789000,33.3939000,-39.9610000,-12.4330000,5.0410000,0.000000,0,0,0
6.010,-0.0975000,-0.1071000,9.6158000,35.8810000,28.7399000,33.2947000,-40.0020000,-12.5020000,4.6470000,0.000000,0,0,0
6.020,-0.1107000,-0.0939000,9.6146000,35.8734000,28.7170000,33.2413000,-39.9510000,-11.9120000,5.1890000,0.000000,0,0,0
6.030,-0.1119000,-0.0843000,9.6158000,35.8734000,28.6407000,33.1955000,-40.1820000,-12.0650000,5.1980000,0.000000,0,0,0
6.040,-0.1119000,-0.0772000,9.6170000,35.9039000,28.5645000,33.1726000,-40.0980000,-12.1950000,5.6280000,0.000000,0,0,0
6.050,-0.1119000,-0.0676000,9.6158000,35.8963000,28.5263000,33.2184000,-39.8100000,-11.8930000,5.1370000,0.000000,0,0,0
6.060,-0.1142000,-0.0628000,9.6134000,35.8505000,28.4424000,33.3633000,-39.8420000,-12.0180000,4.4520000,0.000000,0,0,0
6.070,-0.1178000,-0.0628000,9.6122000,35.8276000,28.2059000,33.5999000,-39.7650000,-11.8830000,4.9290000,0.000000,0,0,0
6.080,-0.1178000,-0.0652000,9.6110000,35.8582000,27.8168000,33.8821000,-39.7710000,-11.9550000,5.2280000,0.000000,0,0,0
6.090,-0.1190000,-0.0676000,9.6098000,35.9039000,27.3590000,34.1415000,-39.7060000,-11.9970000,4.9460000,0.000000,0,0,0
6.100,-0.1166000,-0.0748000,9.6110000,35.9650000,26.9394000,34.3552000,-39.9320000,-11.9290000,5.2690000,0.000000,0,0,0
6.110,-0.1083000,-0.0843000,9.6122000,36.0489000,26.6571000,34.4696000,-40.2420000,-12.3560000,4.9000000,0.000000,0,0,0
6.120,-0.0975000,-0.0939000,9.6158000,36.0794000,26.6037000,34.4238000,-39.9990000,-12.1770000,4.6210000,0.000000,0,0,0
6.130,-0.0915000,-0.1047000,9.6182000,36.0641000,26.7258000,34.2712000,-40.1990000,-12.2620000,5.2120000,0.000000,0,0,0
6.140,-0.0879000,-0.1119000,9.6194000,36.0489000,26.9012000,34.1415000,-40.1880000,-12.3730000,5.2990000,0.000000,0,0,0
6.150,-0.0807000,-0.1083000,9.6182000,36.0336000,27.0767000,34.0424000,-39.8610000,-12.2240000,5.2760000,0.000000,0,0,0
6.160,-0.0736000,-0.0951000,9.6158000,35.9879000,27.2675000,33.9584000,-39.9940000,-12.0060000,5.0600000,0.000000,0,0,0
6.170,-0.0676000,-0.0760000,9.6146000,35.9268000,27.4506000,33.8745000,-40.1410000,-11.9310000,4.9730000,0.000000,0,0,0
6.180,-0.0592000,-0.0568000,9.6122000,35.8353000,27.5726000,33.8287000,-39.8920000,-12.4000000,5.2650000,0.000000,0,0,0
6.190,-0.0604000,-0.0401000,9.6110000,35.7285000,27.5497000,33.9279000,-39.9790000,-12.0910000,4.4740000,0.000000,0,0,0
6.200,-0.0664000,-0.0365000,9.6110000,35.6216000,27.4582000,34.0958000,-39.8710000,-12.2270000,5.1260000,0.000000,0,0,0
6.210,-0.0724000,-0.0461000,9.6146000,35.5377000,27.4124000,34.2026000,-39.9810000,-12.4540000,4.4930000,0.000000,0,0,0
6.220,-0.0831000,-0.0640000,9.6170000,35.4843000,27.4200000,34.2407000,-39.8990000,-11.9100000,4.6080000,0.000000,0,0,0
6.230,-0.0903000,-0.0819000,9.6170000,35.4767000,27.3972000,34.2636000,-39.8070000,-12.2280000,4.8370000,0.000000,0,0,0
6.240,-0.0891000,-0.0903000,9.6182000,35.5225000,27.3438000,34.3018000,-40.0120000,-12.4490000,4.5030000,0.000000,0,0,0
6.250,-0.0855000,-0.0867000,9.6170000,35.6064000,27.2903000,34.3552000,-39.7850000,-12.1620000,4.5570000,0.000000,0,0,0
6.260,-0.0819000,-0.0796000,9.6170000,35.6750000,27.2751000,34.4009000,-39.8760000,-12.1610000,5.2860000,0.000000,0,0,0
6.270,-0.0784000,-0.0724000,9.6182000,35.6827000,27.3666000,34.4009000,-39.8750000,-12.1810000,5.0150000,0.000000,0,0,0
6.280,-0.0784000,-0.0736000,9.6170000,35.6827000,27.5040000,34.3857000,-40.0770000,-12.1040000,5.2560000,0.000000,0,0,0
6.290,-0.0796000,-0.0784000,9.6182000,35.6674000,27.6566000,34.3704000,-40.0220000,-12.2570000,4.4520000,0.000000,0,0,0
6.300,-0.0784000,-0.0867000,9.6182000,35.6369000,27.8320000,34.3399000,-39.9240000,-11.9370000,5.1050000,0.000000,0,0,0
6.310,-0.0784000,-0.0963000,9.6182000,35.5988000,28.0151000,34.2636000,-39.9090000,-12.1290000,5.2300000,0.000000,0,0,0
6.320,-0.0784000,-0.1035000,9.6170000,35.5682000,28.1906000,34.1187000,-39.8860000,-12.1640000,4.9490000,0.000000,0,0,0
6.330,-0.0784000,-0.1083000,9.6170000,35.5530000,28.3432000,33.9279000,-40.2760000,-12.4260000,5.0430000,0.000000,0,0,0
6.340,-0.0807000,-0.1071000,9.6170000,35.5911000,28.4576000,33.7219000,-40.0060000,-12.1910000,5.3290000,0.000000,0,0,0
6.350,-0.0843000,-0.1035000,9.6146000,35.6674000,28.4805000,33.5541000,-39.9450000,-11.9360000,4.4710000,0.000000,0,0,0
6.360,-0.0903000,-0.0975000,9.6122000,35.7742000,28.3966000,33.4702000,-40.1710000,-12.3700000,4.9380000,0.000000,0,0,0
6.370,-0.0987000,-0.0891000,9.6134000,35.8734000,28.2440000,33.4854000,-39.9800000,-11.8480000,5.2430000,0.000000,0,0,0
6.380,-0.1071000,-0.0796000,9.6158000,35.9344000,28.0991000,33.5922000,-39.9310000,-12.3380000,4.7270000,0.000000,0,0,0
6.390,-0.1095000,-0.0760000,9.6158000,35.9650000,27.9465000,33.7372000,-39.9570000,-11.9770000,4.4970000,0.000000,0,0,0
6.400,-0.1047000,-0.0712000,9.6146000,35.9955000,27.8015000,33.8898000,-39.9440000,-12.2570000,4.1000000,0.000000,0,0,0
6.410,-0.0951000,-0.0604000,9.6146000,36.0184000,27.7405000,33.9966000,-40.1590000,-12.1430000,4.9770000,0.000000,0,0,0
6.420,-0.0855000,-0.0568000,9.6134000,35.9726000,27.8244000,34.0271000,-40.0350000,-12.2120000,4.5470000,0.000000,0,0,0
6.430,-0.0784000,-0.0616000,9.6122000,35.8887000,28.0075000,33.9584000,-39.9970000,-12.2670000,4.7750000,0.000000,0,0,0
6.440,-0.0772000,-0.0700000,9.6098000,35.8124000,28.1754000,33.8745000,-40.3000000,-12.0830000,4.4400000,0.000000,0,0,0
6.450,-0.0772000,-0.0724000,9.6110000,35.7208000,28.2974000,33.8364000,-40.0040000,-12.2460000,4.2090000,0.000000,0,0,0
6.460,-0.0760000,-0.0724000,9.6110000,35.6064000,28.3585000,33.8669000,-39.9610000,-12.0160000,4.9560000,0.000000,0,0,0
6.470,-0.0736000,-0.0712000,9.6122000,35.5148000,28.3203000,33.9737000,-39.8180000,-12.0940000,5.2460000,0.000000,0,0,0
6.480,-0.0688000,-0.0688000,9.6122000,35.4919000,28.1601000,34.2102000,-40.0260000,-12.0740000,4.9390000,0.000000,0,0,0
6.490,-0.0676000,-0.0760000,9.6134000,35.5148000,28.0991000,34.3246000,-39.7430000,-12.1570000,4.4450000,0.000000,0,0,0
6.500,-0.0724000,-0.0867000,9.6158000,35.5453000,28.1067000,34.3399000,-39.7940000,-12.3880000,4.6690000,0.000000,0,0,0
6.510,-0.0867000,-0.0999000,9.6170000,35.5606000,28.0991000,34.2712000,-39.9030000,-12.0080000,4.9220000,0.000000,0,0,0
6.520,-0.1035000,-0.1083000,9.6170000,35.5835000,28.0609000,34.1568000,-39.8560000,-12.4790000,5.4450000,0.000000,0,0,0
6.530,-0.1142000,-0.1107000,9.6158000,35.6216000,28.0609000,34.0042000,-39.9240000,-12.3090000,5.4550000,0.000000,0,0,0
6.540,-0.1166000,-0.1083000,9.6170000,35.6445000,28.0457000,33.8745000,-39.7740000,-12.4820000,4.8730000,0.000000,0,0,0
6.550,-0.1107000,-0.1023000,9.6170000,35.6369000,27.9617000,33.8211000,-39.7740000,-12.3450000,4.9630000,0.000000,0,0,0
6.560,-0.1011000,-0.0987000,9.6182000,35.6216000,27.8473000,33.8058000,-40.0070000,-12.5510000,5.0530000,0.000000,0,0,0
6.570,-0.0915000,-0.0975000,9.6170000,35.6293000,27.8015000,33.7372000,-39.8370000,-12.4950000,5.2820000,0.000000,0,0,0
6.580,-0.0879000,-0.0999000,9.6182000,35.6598000,27.8244000,33.5922000,-40.0310000,-12.1520000,4.8110000,0.000000,0,0,0
6.590,-0.0903000,-0.1059000,9.6182000,35.6903000,27.8473000,33.4473000,-39.7790000,-12.3730000,4.8460000,0.000000,0,0,0
6.600,-0.0975000,-0.1107000,9.6182000,35.7513000,27.7863000,33.3786000,-39.7200000,-12.2400000,4.4480000,0.000000,0,0,0
6.610,-0.1023000,-0.1083000,9.6170000,35.8276000,27.6871000,33.3710000,-39.6500000,-12.4380000,4.5780000,0.000000,0,0,0
6.620,-0.1035000,-0.1035000,9.6170000,35.8734000,27.6413000,33.4015000,-39.5270000,-12.3910000,4.3700000,0.000000,0,0,0
6.630,-0.1035000,-0.0975000,9.6158000,35.9268000,27.6108000,33.4396000,-39.6670000,-12.2810000,4.2840000,0.000000,0,0,0
6.640,-0.1071000,-0.0951000,9.6146000,35.9955000,27.5650000,33.5236000,-39.5760000,-12.2460000,4.9580000,0.000000,0,0,0
6.650,-0.1071000,-0.0939000,9.6158000,36.0336000,27.5497000,33.6075000,-39.8870000,-12.5600000,4.9040000,0.000000,0,0,0
6.660,-0.0951000,-0.0939000,9.6158000,36.0260000,27.6184000,33.6151000,-40.2250000,-12.4240000,4.9300000,0.000000,0,0,0
6.670,-0.0796000,-0.0927000,9.6146000,35.9573000,27.7634000,33.5464000,-39.6790000,-12.4300000,4.7980000,0.000000,0,0,0
6.680,-0.0664000,-0.0903000,9.6134000,35.8429000,27.9007000,33.4778000,-39.9610000,-12.0230000,5.1440000,0.000000,0,0,0
6.690,-0.0568000,-0.0855000,9.6134000,35.7742000,27.9770000,33.4320000,-39.9490000,-12.2710000,4.4910000,0.000000,0,0,0
6.700,-0.0544000,-0.0807000,9.6146000,35.7666000,28.0151000,33.3939000,-39.8210000,-12.3930000,5.4860000,0.000000,0,0,0
6.710,-0.0592000,-0.0796000,9.6146000,35.7971000,28.0151000,33.3328000,-39.8210000,-12.3210000,4.4340000,0.000000,0,0,0
6.720,-0.0700000,-0.0819000,9.6158000,35.8505000,28.0151000,33.2565000,-39.8870000,-12.0560000,4.6980000,0.000000,0,0,0
6.730,-0.0879000,-0.0831000,9.6170000,35.8887000,28.0151000,33.1726000,-40.0980000,-12.2190000,4.0560000,0.000000,0,0,0
6.740,-0.0999000,-0.0807000,9.6182000,35.8810000,27.9922000,33.1268000,-39.8610000,-12.3390000,4.5330000,0.000000,0,0,0
6.750,-0.1083000,-0.0772000,9.6170000,35.8276000,27.9236000,33.1268000,-39.8400000,-12.2320000,5.2600000,0.000000,0,0,0
6.760,-0.1107000,-0.0760000,9.6158000,35.7742000,27.8320000,33.1802000,-40.0320000,-12.2670000,5.1880000,0.000000,0,0,0
6.770,-0.1095000,-0.0784000,9.6170000,35.7361000,27.7328000,33.3176000,-39.8840000,-12.1400000,4.8170000,0.000000,0,0,0
6.780,-0.1023000,-0.0867000,9.6170000,35.7132000,27.6794000,33.4778000,-39.6820000,-12.2390000,4.2570000,0.000000,0,0,0
6.790,-0.0939000,-0.0999000,9.6170000,35.6903000,27.6718000,33.6380000,-39.8870000,-12.4810000,4.4270000,0.000000,0,0,0
6.800,-0.0915000,-0.1107000,9.6158000,35.6979000,27.6413000,33.8058000,-39.7810000,-12.6690000,4.7700000,0.000000,0,0,0
6.810,-0.0915000,-0.1130000,9.6158000,35.7132000,27.5650000,34.0042000,-39.5310000,-12.3600000,4.4970000,0.000000,0,0,0
6.820,-0.0915000,-0.1047000,9.6146000,35.7361000,27.4353000,34.2026000,-39.8450000,-12.6110000,4.6720000,0.000000,0,0,0
6.830,-0.0927000,-0.0915000,9.6146000,35.7971000,27.2751000,34.3399000,-39.7080000,-12.5680000,4.4830000,0.000000,0,0,0
6.840,-0.0927000,-0.0760000,9.6146000,35.8887000,27.1072000,34.4162000,-39.9320000,-12.1370000,4.4540000,0.000000,0,0,0
6.850,-0.0843000,-0.0736000,9.6158000,35.9573000,27.0767000,34.3781000,-40.0480000,-12.5500000,4.6750000,0.000000,0,0,0
6.860,-0.0724000,-0.0831000,9.6170000,36.0031000,27.2141000,34.1949000,-39.7520000,-12.4310000,4.8360000,0.000000,0,0,0
6.870,-0.0628000,-0.0963000,9.6158000,36.0031000,27.4582000,33.9203000,-39.7680000,-12.2830000,4.9760000,0.000000,0,0,0
6.880,-0.0604000,-0.1095000,9.6146000,35.9650000,27.7176000,33.6533000,-39.6600000,-12.2320000,4.5120000,0.000000,0,0,0
6.890,-0.0640000,-0.1202000,9.6158000,35.9497000,27.9160000,33.5007000,-39.6340000,-12.0680000,5.1080000,0.000000,0,0,0
6.900,-0.0712000,-0.1178000,9.6158000,35.9573000,28.0380000,33.4625000,-39.5390000,-12.4840000,5.2220000,0.000000,0,0,0
6.910,-0.0831000,-0.1023000,9.6146000,35.9192000,28.0838000,33.5236000,-39.7140000,-12.3060000,5.0000000,0.000000,0,0,0
6.920,-0.0903000,-0.0903000,9.6122000,35.8505000,28.0533000,33.6380000,-39.6150000,-12.3000000,5.1440000,0.000000,0,0,0
6.930,-0.0927000,-0.0807000,9.6098000,35.8276000,27.9617000,33.7143000,-39.6710000,-12.5810000,4.8470000,0.000000,0,0,0
6.940,-0.0927000,-0.0724000,9.6098000,35.8353000,27.8320000,33.7296000,-40.1500000,-12.2920000,4.6770000,0.000000,0,0,0
6.950,-0.0951000,-0.0676000,9.6110000,35.8353000,27.7023000,33.7296000,-39.8900000,-12.1460000,4.9650000,0.000000,0,0,0
6.960,-0.0951000,-0.0724000,9.6122000,35.8276000,27.5955000,33.7296000,-39.9590000,-12.3020000,5.3080000,0.000000,0,0,0
6.970,-0.0939000,-0.0819000,9.6146000,35.8200000,27.5421000,33.7601000,-40.0070000,-12.2570000,4.8970000,0.000000,0,0,0
6.980,-0.0915000,-0.0939000,9.6170000,35.8124000,27.5421000,33.8211000,-39.5150000,-12.2580000,5.0840000,0.000000,0,0,0
6.990,-0.0855000,-0.1035000,9.6194000,35.8124000,27.6337000,33.8745000,-39.4950000,-12.3520000,5.3140000,0.000000,0,0,0
7.000,-0.0724000,-0.1154000,9.6182000,35.8047000,27.8320000,33.8669000,-39.8470000,-12.3260000,5.3610000,0.000000,0,0,0
7.010,-0.0604000,-0.1214000,9.6158000,35.8124000,27.9312000,33.7830000,-39.8270000,-12.3410000,5.1840000,0.000000,0,0,0
7.020,-0.0520000,-0.1214000,9.6158000,35.8505000,28.0609000,33.6227000,-39.8230000,-12.5030000,4.8380000,0.000000,0,0,0
7.030,-0.0508000,-0.1130000,9.6170000,35.8963000,28.2364000,33.3939000,-39.9530000,-12.4030000,4.8800000,0.000000,0,0,0
7.040,-0.0568000,-0.1011000,9.6170000,35.9192000,28.4348000,33.1421000,-39.4420000,-12.1840000,4.8990000,0.000000,0,0,0
7.050,-0.0700000,-0.0903000,9.6170000,35.9268000,28.6331000,32.8979000,-39.7110000,-12.1970000,4.9890000,0.000000,0,0,0
7.060,-0.0879000,-0.0831000,9.6146000,35.9192000,28.7781000,32.7072000,-39.8710000,-12.5290000,5.1850000,0.000000,0,0,0
7.070,-0.1023000,-0.0796000,9.6122000,35.9039000,28.8467000,32.6004000,-40.0090000,-12.5090000,5.0590000,0.000000,0,0,0
7.080,-0.1142000,-0.0784000,9.6098000,35.8887000,28.8086000,32.5928000,-39.8350000,-12.4570000,5.3400000,0.000000,0,0,0
7.090,-0.1190000,-0.0807000,9.6098000,35.8658000,28.6713000,32.7148000,-39.5200000,-12.5650000,5.2820000,0.000000,0,0,0
7.100,-0.1190000,-0.0843000,9.6122000,35.8429000,28.4958000,32.9666000,-39.9160000,-12.3370000,5.1740000,0.000000,0,0,0
7.110,-0.1142000,-0.0891000,9.6158000,35.7971000,28.3966000,33.2718000,-39.6780000,-12.4720000,4.4170000,0.000000,0,0,0
7.120,-0.1071000,-0.0951000,9.6158000,35.7285000,28.4042000,33.5693000,-39.7880000,-12.2740000,4.9910000,0.000000,0,0,0
7.130,-0.1047000,-0.1023000,9.6170000,35.6750000,28.4882000,33.8135000,-39.8920000,-12.1700000,4.8580000,0.000000,0,0,0
7.140,-0.1023000,-0.1083000,9.6158000,35.6674000,28.5187000,34.0195000,-39.5970000,-12.0810000,5.0730000,0.000000,0,0,0
7.150,-0.0987000,-0.1023000,9.6158000,35.7132000,28.4500000,34.2102000,-39.4250000,-12.2460000,4.7450000,0.000000,0,0,0
7.160,-0.0915000,-0.0891000,9.6146000,35.7361000,28.3890000,34.3628000,-39.5400000,-12.1680000,4.3350000,0.000000,0,0,0
7.170,-0.0867000,-0.0819000,9.6146000,35.7208000,28.3737000,34.4467000,-39.7650000,-12.4590000,4.8320000,0.000000,0,0,0
7.180,-0.0879000,-0.0843000,9.6146000,35.6827000,28.3737000,34.4849000,-39.6480000,-12.2400000,4.7180000,0.000000,0,0,0
7.190,-0.0951000,-0.0903000,9.6158000,35.6598000,28.3432000,34.4772000,-39.7560000,-12.4780000,5.0780000,0.000000,0,0,0
7.200,-0.1059000,-0.0915000,9.6158000,35.6598000,28.2516000,34.4543000,-39.8540000,-12.1390000,4.5650000,0.000000,0,0,0
7.210,-0.1178000,-0.0903000,9.6146000,35.6903000,28.1143000,34.4162000,-39.7710000,-12.4580000,4.7220000,0.000000,0,0,0
7.220,-0.1286000,-0.0879000,9.6146000,35.7513000,27.9236000,34.3933000,-39.6520000,-12.3320000,4.7710000,0.000000,0,0,0
7.230,-0.1346000,-0.0867000,9.6158000,35.8582000,27.6871000,34.3704000,-39.9190000,-12.4700000,5.4390000,0.000000,0,0,0
7.240,-0.1310000,-0.0855000,9.6182000,35.9421000,27.5269000,34.3323000,-39.7470000,-12.2460000,5.0880000,0.000000,0,0,0
7.250,-0.1107000,-0.0927000,9.6194000,35.9650000,27.4963000,34.2255000,-40.0980000,-12.4840000,4.7000000,0.000000,0,0,0
7.260,-0.0879000,-0.0999000,9.6194000,35.9497000,27.5650000,33.9966000,-39.8740000,-12.5180000,4.3190000,0.000000,0,0,0
7.270,-0.0748000,-0.1107000,9.6206000,35.9116000,27.7481000,33.7448000,-39.7650000,-12.3800000,4.2960000,0.000000,0,0,0
7.280,-0.0628000,-0.1178000,9.6218000,35.8887000,27.9694000,33.5312000,-39.7340000,-12.1970000,5.1680000,0.000000,0,0,0
7.290,-0.0616000,-0.1178000,9.6218000,35.8810000,28.1906000,33.3710000,-39.6450000,-11.9860000,4.8760000,0.000000,0,0,0
7.300,-0.0676000,-0.1142000,9.6218000,35.8810000,28.3813000,33.2565000,-39.9300000,-12.4380000,4.3110000,0.000000,0,0,0
7.310,-0.0807000,-0.1071000,9.6218000,35.8887000,28.5339000,33.1802000,-39.7910000,-12.3260000,4.0870000,0.000000,0,0,0
7.320,-0.0987000,-0.0951000,9.6206000,35.8963000,28.6331000,33.1421000,-40.0010000,-12.3790000,4.5460000,0.000000,0,0,0
7.330,-0.1119000,-0.0855000,9.6194000,35.8810000,28.6407000,33.1650000,-39.8460000,-12.5480000,4.2300000,0.000000,0,0,0
7.340,-0.1166000,-0.0807000,9.6170000,35.8810000,28.5187000,33.2336000,-39.8750000,-12.3540000,4.2060000,0.000000,0,0,0
7.350,-0.1142000,-0.0760000,9.6146000,35.9039000,28.3279000,33.3328000,-39.8610000,-12.2750000,4.2790000,0.000000,0,0,0
7.360,-0.1095000,-0.0760000,9.6146000,35.8963000,28.1754000,33.4167000,-39.5760000,-12.4270000,4.7530000,0.000000,0,0,0
7.370,-0.1023000,-0.0843000,9.6158000,35.8810000,28.1372000,33.4320000,-39.9080000,-12.2940000,4.1150000,0.000000,0,0,0
7.380,-0.0987000,-0.0939000,9.6182000,35.8658000,28.1677000,33.3862000,-39.6530000,-12.1370000,4.2260000,0.000000,0,0,0
7.390,-0.1023000,-0.0987000,9.6182000,35.8353000,28.2364000,33.2870000,-39.8870000,-12.4240000,4.5050000,0.000000,0,0,0
7.400,-0.1107000,-0.0987000,9.6170000,35.7971000,28.2822000,33.2184000,-39.9720000,-12.5220000,4.3960000,0.000000,0,0,0
7.410,-0.1202000,-0.0939000,9.6170000,35.8276000,28.2211000,33.2260000,-39.8370000,-12.2140000,4.4050000,0.000000,0,0,0
7.420,-0.1286000,-0.0855000,9.6170000,35.8734000,28.1067000,33.3023000,-39.8950000,-12.4170000,4.6080000,0.000000,0,0,0
7.430,-0.1310000,-0.0831000,9.6194000,35.9039000,28.0151000,33.4015000,-40.0800000,-12.2580000,4.4960000,0.000000,0,0,0
7.440,-0.1262000,-0.0879000,9.6206000,35.9192000,27.9922000,33.4778000,-40.1780000,-11.9890000,4.7540000,0.000000,0,0,0
7.450,-0.1166000,-0.0951000,9.6218000,35.9268000,28.0228000,33.5464000,-39.9090000,-12.4740000,5.1120000,0.000000,0,0,0
7.460,-0.1107000,-0.1035000,9.6229000,35.9344000,28.0838000,33.6075000,-39.9620000,-12.3690000,5.2540000,0.000000,0,0,0
7.470,-0.1071000,-0.1071000,9.6229000,35.9344000,28.1830000,33.6456000,-39.9320000,-12.3110000,4.8360000,0.000000,0,0,0
7.480,-0.1071000,-0.1071000,9.6206000,35.9116000,28.2669000,33.6380000,-39.9200000,-12.1200000,4.9120000,0.000000,0,0,0
7.490,-0.1095000,-0.1011000,9.6182000,35.9116000,28.2669000,33.5922000,-39.8200000,-12.3410000,4.8340000,0.000000,0,0,0
7.500,-0.1190000,-0.0951000,9.6170000,35.9268000,28.2135000,33.5083000,-39.9140000,-12.3000000,4.4960000,0.000000,0,0,0
7.510,-0.1298000,-0.0927000,9.6170000,35.9650000,28.1601000,33.3862000,-39.7960000,-12.2740000,4.3780000,0.000000,0,0,0
7.520,-0.1406000,-0.0939000,9.6194000,36.0336000,28.0991000,33.2718000,-40.1060000,-12.0460000,4.2990000,0.000000,0,0,0
7.530,-0.1453000,-0.0915000,9.6218000,36.1023000,28.0533000,33.2031000,-39.9330000,-12.3610000,4.1210000,0.000000,0,0,0
7.540,-0.1430000,-0.0891000,9.6241000,36.1481000,28.0228000,33.1879000,-40.2170000,-12.4310000,4.0730000,0.000000,0,0,0
7.550,-0.1346000,-0.0915000,9.6253000,36.2244000,28.0304000,33.2489000,-39.9260000,-12.1750000,4.5190000,0.000000,0,0,0
7.560,-0.1238000,-0.0939000,9.6229000,36.2854000,28.0685000,33.2870000,-39.9780000,-12.2340000,4.5700000,0.000000,0,0,0
7.570,-0.1130000,-0.0927000,9.6206000,36.3083000,28.0685000,33.3405000,-39.8410000,-12.2040000,4.2800000,0.000000,0,0,0
7.580,-0.1047000,-0.0879000,9.6194000,36.3235000,28.0533000,33.3786000,-39.8280000,-12.1920000,4.7260000,0.000000,0,0,0
7.590,-0.1023000,-0.0831000,9.6170000,36.3083000,28.0609000,33.3710000,-39.9520000,-12.5610000,4.5830000,0.000000,0,0,0
7.600,-0.1071000,-0.0807000,9.6158000,36.2701000,28.0228000,33.3328000,-39.7250000,-12.1020000,4.6980000,0.000000,0,0,0
7.610,-0.1226000,-0.0784000,9.6146000,36.2320000,27.9160000,33.3710000,-39.7930000,-12.1350000,4.6870000,0.000000,0,0,0
7.620,-0.1262000,-0.0784000,9.6146000,36.1786000,27.7710000,33.4930000,-39.5460000,-12.3110000,3.8550000,0.000000,0,0,0
7.630,-0.1298000,-0.0796000,9.6146000,36.1557000,27.6108000,33.6456000,-39.8430000,-12.2990000,4.6660000,0.000000,0,0,0
7.640,-0.1346000,-0.0784000,9.6146000,36.1481000,27.4811000,33.7830000,-39.8130000,-12.4840000,4.4780000,0.000000,0,0,0
7.650,-0.1346000,-0.0760000,9.6170000,36.1557000,27.4124000,33.8821000,-39.9770000,-12.1110000,5.2340000,0.000000,0,0,0
7.660,-0.1298000,-0.0748000,9.6194000,36.1404000,27.4048000,33.8898000,-39.9280000,-12.5150000,4.8190000,0.000000,0,0,0
7.670,-0.1214000,-0.0712000,9.6206000,36.1176000,27.4506000,33.8135000,-39.6760000,-12.3980000,4.8870000,0.000000,0,0,0
7.680,-0.1119000,-0.0676000,9.6206000,36.0870000,27.5421000,33.6761000,-39.6580000,-12.5950000,5.1830000,0.000000,0,0,0
7.690,-0.1035000,-0.0688000,9.6206000,36.0565000,27.6489000,33.5541000,-40.0130000,-12.0390000,4.2320000,0.000000,0,0,0
7.700,-0.0939000,-0.0760000,9.6206000,36.0184000,27.7710000,33.4854000,-39.9550000,-12.2390000,4.5830000,0.000000,0,0,0
7.710,-0.0867000,-0.0879000,9.6229000,35.9955000,27.9236000,33.4549000,-39.7750000,-12.4530000,4.8290000,0.000000,0,0,0
7.720,-0.0819000,-0.0975000,9.6229000,35.9573000,28.1219000,33.4244000,-39.4200000,-12.6950000,4.4290000,0.000000,0,0,0
7.730,-0.0819000,-0.0975000,9.6229000,35.8963000,28.3661000,33.3633000,-39.5880000,-12.4240000,5.2350000,0.000000,0,0,0
7.740,-0.0903000,-0.0891000,9.6218000,35.8200000,28.5950000,33.2870000,-39.9070000,-12.4430000,4.8620000,0.000000,0,0,0
7.750,-0.1047000,-0.0760000,9.6182000,35.7285000,28.7704000,33.2336000,-39.7700000,-12.5570000,5.2320000,0.000000,0,0,0
7.760,-0.1226000,-0.0616000,9.6158000,35.6369000,28.8086000,33.2413000,-39.7740000,-12.2950000,5.1150000,0.000000,0,0,0
7.770,-0.1394000,-0.0520000,9.6146000,35.5988000,28.7170000,33.3023000,-39.8320000,-12.3750000,5.6650000,0.000000,0,0,0
7.780,-0.1525000,-0.0461000,9.6158000,35.5911000,28.5568000,33.4015000,-39.4820000,-12.4120000,5.7340000,0.000000,0,0,0
7.790,-0.1573000,-0.0484000,9.6170000,35.5835000,28.3890000,33.5083000,-39.5780000,-12.2350000,5.0900000,0.000000,0,0,0
7.800,-0.1561000,-0.0592000,9.6206000,35.5988000,28.2211000,33.6075000,-39.5350000,-11.9760000,5.5370000,0.000000,0,0,0
7.810,-0.1501000,-0.0736000,9.6218000,35.6293000,28.0685000,33.6685000,-39.7270000,-12.1180000,5.3230000,0.000000,0,0,0
7.820,-0.1406000,-0.0855000,9.6241000,35.6827000,27.9236000,33.6533000,-39.7310000,-12.2150000,5.7450000,0.000000,0,0,0
7.830,-0.1274000,-0.0903000,9.6229000,35.7513000,27.8168000,33.5617000,-39.6790000,-12.4570000,5.7940000,0.000000,0,0,0
7.840,-0.1166000,-0.0915000,9.6206000,35.8124000,27.7863000,33.3939000,-39.7600000,-12.5840000,5.4400000,0.000000,0,0,0
7.850,-0.1119000,-0.0927000,9.6194000,35.8505000,27.8397000,33.1802000,-39.6840000,-12.4430000,5.1250000,0.000000,0,0,0
7.860,-0.1119000,-0.0939000,9.6170000,35.8734000,27.9236000,32.9895000,-40.0220000,-12.4220000,5.1680000,0.000000,0,0,0
7.870,-0.1178000,-0.0963000,9.6170000,35.9116000,27.9922000,32.8522000,-39.5210000,-12.4720000,5.1580000,0.000000,0,0,0
7.880,-0.1238000,-0.0999000,9.6182000,35.9497000,28.0762000,32.7911000,-40.0880000,-12.3220000,4.5820000,0.000000,0,0,0
7.890,-0.1262000,-0.1011000,9.6194000,35.9344000,28.1982000,32.7835000,-39.8330000,-12.4470000,5.1720000,0.000000,0,0,0
7.900,-0.1286000,-0.1011000,9.6194000,35.8505000,28.2822000,32.8369000,-39.5770000,-12.3920000,4.7400000,0.000000,0,0,0
7.910,-0.1346000,-0.0975000,9.6194000,35.7666000,28.2822000,32.9819000,-39.8990000,-12.1690000,4.3190000,0.000000,0,0,0
7.920,-0.1406000,-0.0879000,9.6194000,35.7285000,28.2211000,33.1879000,-39.9670000,-12.4030000,5.7860000,0.000000,0,0,0
7.930,-0.1442000,-0.0784000,9.6206000,35.6979000,28.1601000,33.4167000,-40.0650000,-12.5370000,5.2230000,0.000000,0,0,0
7.940,-0.1453000,-0.0688000,9.6218000,35.6750000,28.0991000,33.5922000,-39.8260000,-12.1450000,5.3640000,0.000000,0,0,0
7.950,-0.1430000,-0.0652000,9.6206000,35.6750000,27.9846000,33.6761000,-40.0830000,-12.3400000,5.0710000,0.000000,0,0,0
7.960,-0.1406000,-0.0628000,9.6194000,35.6903000,27.8397000,33.7067000,-39.6500000,-12.6590000,5.3480000,0.000000,0,0,0
7.970,-0.1394000,-0.0616000,9.6194000,35.6903000,27.6871000,33.7067000,-39.6150000,-12.2570000,4.8620000,0.000000,0,0,0
7.980,-0.1430000,-0.0664000,9.6206000,35.6903000,27.5574000,33.6990000,-39.6020000,-12.1500000,5.2030000,0.000000,0,0,0
7.990,-0.1453000,-0.0724000,9.6206000,35.6903000,27.4734000,33.6914000,-39.7370000,-12.1570000,5.1400000,0.000000,0,0,0
8.000,-0.1430000,-0.0796000,9.6194000,35.7056000,27.4200000,33.7067000,-39.6410000,-11.9080000,5.3190000,0.000000,0,0,0
8.010,-0.1310000,-0.0843000,9.6194000,35.7590000,27.4048000,33.7372000,-39.4030000,-12.3250000,4.8310000,0.000000,0,0,0
8.020,-0.1178000,-0.0891000,9.6194000,35.8276000,27.4200000,33.7372000,-39.6110000,-12.4770000,4.6290000,0.000000,0,0,0
8.030,-0.1071000,-0.0927000,9.6194000,35.8963000,27.4811000,33.6990000,-39.2870000,-12.3740000,4.9090000,0.000000,0,0,0
8.040,-0.1011000,-0.0975000,9.6194000,35.9192000,27.6108000,33.5846000,-39.5760000,-12.4830000,5.2660000,0.000000,0,0,0
8.050,-0.1035000,-0.1023000,9.6218000,35.9039000,27.7939000,33.4244000,-39.2620000,-12.3770000,4.8810000,0.000000,0,0,0
8.060,-0.1130000,-0.1047000,9.6206000,35.8505000,27.9770000,33.2947000,-39.6460000,-12.2950000,5.2060000,0.000000,0,0,0
8.070,-0.1238000,-0.1035000,9.6206000,35.7895000,28.0991000,33.2108000,-39.8120000,-12.3850000,4.9260000,0.000000,0,0,0
8.080,-0.1346000,-0.0939000,9.6182000,35.7666000,28.1067000,33.1879000,-39.7380000,-12.2010000,4.6060000,0.000000,0,0,0
8.090,-0.1370000,-0.0831000,9.6182000,35.7590000,28.0457000,33.2336000,-39.7750000,-12.2250000,4.7060000,0.000000,0,0,0
8.100,-0.1394000,-0.0760000,9.6206000,35.7590000,27.9999000,33.3176000,-39.6570000,-11.9610000,4.6520000,0.000000,0,0,0
8.110,-0.1382000,-0.0784000,9.6206000,35.8124000,27.9388000,33.4015000,-39.7960000,-12.1510000,5.0400000,0.000000,0,0,0
8.120,-0.1346000,-0.0819000,9.6194000,35.8582000,27.8625000,33.4854000,-39.7280000,-11.9540000,4.6380000,0.000000,0,0,0
8.130,-0.1298000,-0.0867000,9.6206000,35.8582000,27.8244000,33.5388000,-39.5060000,-12.2410000,4.9870000,0.000000,0,0,0
8.140,-0.1238000,-0.0903000,9.6206000,35.8429000,27.8549000,33.5236000,-39.6390000,-12.1390000,5.2320000,0.000000,0,0,0
8.150,-0.1190000,-0.0891000,9.6218000,35.8200000,27.9160000,33.4473000,-39.7070000,-12.1980000,5.3810000,0.000000,0,0,0
8.160,-0.1190000,-0.0796000,9.6206000,35.8047000,27.9770000,33.3862000,-39.5090000,-12.3600000,5.5110000,0.000000,0,0,0
8.170,-0.1226000,-0.0724000,9.6206000,35.8124000,27.9922000,33.3939000,-39.7170000,-12.1800000,5.0810000,0.000000,0,0,0
8.180,-0.1286000,-0.0652000,9.6206000,35.8582000,27.9312000,33.4930000,-39.5090000,-12.5250000,4.8520000,0.000000,0,0,0
8.190,-0.1346000,-0.0640000,9.6218000,35.9116000,27.8397000,33.6380000,-39.6050000,-12.4190000,5.3830000,0.000000,0,0,0
8.200,-0.1382000,-0.0676000,9.6218000,35.9344000,27.7634000,33.7677000,-39.4710000,-12.2640000,5.3130000,0.000000,0,0,0
8.210,-0.1346000,-0.0700000,9.6218000,35.9192000,27.7252000,33.8440000,-39.4350000,-12.4140000,5.2990000,0.000000,0,0,0
8.220,-0.1286000,-0.0712000,9.6218000,35.8658000,27.7481000,33.8440000,-39.6530000,-12.2460000,5.2000000,0.000000,0,0,0
8.230,-0.1238000,-0.0736000,9.6229000,35.8200000,27.8244000,33.7677000,-39.5220000,-12.4870000,5.2030000,0.000000,0,0,0
8.240,-0.1226000,-0.0748000,9.6229000,35.7819000,27.9083000,33.6990000,-39.6450000,-12.2380000,5.2480000,0.000000,0,0,0
8.250,-0.1238000,-0.0748000,9.6229000,35.7437000,27.9617000,33.6685000,-39.5280000,-12.1700000,5.3980000,0.000000,0,0,0
8.260,-0.1298000,-0.0772000,9.6218000,35.7437000,27.9541000,33.6914000,-39.4560000,-11.9040000,5.0310000,0.000000,0,0,0
8.270,-0.1394000,-0.0807000,9.6229000,35.7666000,27.8854000,33.7601000,-39.3000000,-12.1570000,5.5420000,0.000000,0,0,0
8.280,-0.1489000,-0.0843000,9.6229000,35.7971000,27.8244000,33.8135000,-39.2810000,-12.0870000,5.7850000,0.000000,0,0,0
8.290,-0.1501000,-0.0891000,9.6229000,35.8200000,27.8091000,33.8287000,-39.6530000,-12.0370000,5.9860000,0.000000,0,0,0
8.300,-0.1465000,-0.0927000,9.6229000,35.8429000,27.8244000,33.7982000,-39.6270000,-12.0890000,5.7540000,0.000000,0,0,0
8.310,-0.1358000,-0.0987000,9.6241000,35.8505000,27.8702000,33.7677000,-39.4750000,-12.0740000,5.2240000,0.000000,0,0,0
8.320,-0.1238000,-0.1035000,9.6241000,35.8505000,27.9236000,33.7448000,-39.4560000,-12.0190000,5.2330000,0.000000,0,0,0
8.330,-0.1154000,-0.1071000,9.6241000,35.8582000,27.9999000,33.7296000,-39.9360000,-12.2640000,5.0850000,0.000000,0,0,0
8.340,-0.1190000,-0.1083000,9.6241000,35.8734000,28.0914000,33.7372000,-39.2580000,-12.5400000,5.1090000,0.000000,0,0,0
8.350,-0.1298000,-0.1059000,9.6229000,35.8963000,28.1677000,33.8058000,-39.3800000,-12.4100000,4.7780000,0.000000,0,0,0
8.360,-0.1406000,-0.0987000,9.6218000,35.9116000,28.1525000,33.9203000,-39.6050000,-12.2610000,5.2480000,0.000000,0,0,0
8.370,-0.1513000,-0.0843000,9.6206000,35.9192000,28.0762000,34.0729000,-39.8040000,-12.2660000,4.8270000,0.000000,0,0,0
8.380,-0.1537000,-0.0676000,9.6182000,35.9192000,27.9236000,34.2407000,-39.8770000,-12.2900000,4.8960000,0.000000,0,0,0
8.390,-0.1501000,-0.0532000,9.6146000,35.9116000,27.7405000,34.3857000,-39.6460000,-12.3540000,5.0070000,0.000000,0,0,0
8.400,-0.1418000,-0.0449000,9.6170000,35.8734000,27.5803000,34.4696000,-39.6510000,-12.3590000,5.4160000,0.000000,0,0,0
8.410,-0.1310000,-0.0473000,9.6194000,35.8276000,27.4887000,34.4772000,-39.7830000,-12.1100000,5.4110000,0.000000,0,0,0
8.420,-0.1202000,-0.0592000,9.6218000,35.7895000,27.5040000,34.4162000,-39.5760000,-12.1230000,5.4540000,0.000000,0,0,0
8.430,-0.1107000,-0.0700000,9.6229000,35.7437000,27.6260000,34.2789000,-39.8270000,-12.2260000,5.1730000,0.000000,0,0,0
8.440,-0.1083000,-0.0796000,9.6218000,35.6827000,27.8015000,34.0729000,-39.4580000,-12.2640000,5.1140000,0.000000,0,0,0
8.450,-0.1130000,-0.0891000,9.6229000,35.6598000,27.9770000,33.8593000,-39.7150000,-12.2200000,5.7020000,0.000000,0,0,0
8.460,-0.1262000,-0.0927000,9.6206000,35.6827000,28.1067000,33.6914000,-39.5010000,-12.0570000,5.2770000,0.000000,0,0,0
8.470,-0.1394000,-0.0915000,9.6194000,35.7056000,28.2059000,33.6075000,-39.4340000,-12.3200000,5.8640000,0.000000,0,0,0
8.480,-0.1513000,-0.0903000,9.6182000,35.7285000,28.2593000,33.6151000,-39.4170000,-12.2320000,4.9530000,0.000000,0,0,0
8.490,-0.1573000,-0.0927000,9.6182000,35.7437000,28.2364000,33.7143000,-39.3260000,-11.8880000,5.1570000,0.000000,0,0,0
8.500,-0.1537000,-0.0951000,9.6194000,35.7513000,28.1525000,33.8593000,-39.3060000,-11.9680000,5.5730000,0.000000,0,0,0
8.510,-0.1430000,-0.0999000,9.6194000,35.7666000,28.0151000,33.9813000,-39.5860000,-12.3640000,5.0790000,0.000000,0,0,0
8.520,-0.1310000,-0.1023000,9.6182000,35.7971000,27.8397000,34.0271000,-39.5430000,-12.0330000,4.9540000,0.000000,0,0,0
8.530,-0.1178000,-0.0939000,9.6170000,35.8353000,27.7176000,33.9737000,-39.4850000,-12.2840000,4.8650000,0.000000,0,0,0
8.540,-0.1130000,-0.0724000,9.6158000,35.8658000,27.6566000,33.8440000,-39.5050000,-12.4060000,5.2010000,0.000000,0,0,0
8.550,-0.1166000,-0.0508000,9.6134000,35.9268000,27.5879000,33.6838000,-39.6500000,-12.2140000,5.0310000,0.000000,0,0,0
8.560,-0.1226000,-0.0449000,9.6134000,36.0489000,27.4658000,33.5464000,-39.2890000,-12.2970000,5.4480000,0.000000,0,0,0
8.570,-0.1322000,-0.0544000,9.6158000,36.1710000,27.3209000,33.4091000,-39.5360000,-12.2290000,4.9110000,0.000000,0,0,0
8.580,-0.1442000,-0.0819000,9.6218000,36.2320000,27.2141000,33.3099000,-39.4180000,-11.9660000,5.7570000,0.000000,0,0,0
8.590,-0.1525000,-0.1154000,9.6265000,36.1862000,27.2064000,33.2718000,-39.4200000,-12.2120000,5.4540000,0.000000,0,0,0
8.600,-0.1513000,-0.1406000,9.6301000,36.0336000,27.4048000,33.3023000,-39.3080000,-11.9560000,5.3180000,0.000000,0,0,0
8.610,-0.1465000,-0.1489000,9.6301000,35.8734000,27.7252000,33.4091000,-39.1940000,-12.4090000,5.1030000,0.000000,0,0,0
8.620,-0.1382000,-0.1262000,9.6253000,35.7666000,28.1143000,33.7982000,-39.4940000,-11.9630000,5.1950000,0.000000,0,0,0
8.630,-0.1274000,-0.0927000,9.6194000,35.7742000,28.2288000,34.0881000,-39.5790000,-12.3430000,5.0680000,0.000000,0,0,0
8.640,-0.1154000,-0.0628000,9.6134000,35.8047000,28.2822000,34.2712000,-39.5690000,-12.3480000,5.0600000,0.000000,0,0,0
8.650,-0.1071000,-0.0461000,9.6110000,35.8429000,28.3127000,34.3094000,-39.3000000,-12.0350000,4.7680000,0.000000,0,0,0
8.660,-0.1047000,-0.0425000,9.6110000,35.8582000,28.3051000,34.2331000,-39.4330000,-12.0890000,4.7170000,0.000000,0,0,0
8.670,-0.1095000,-0.0520000,9.6134000,35.8276000,28.2593000,34.0958000,-39.3860000,-12.1490000,5.2080000,0.000000,0,0,0
8.680,-0.1190000,-0.0616000,9.6158000,35.7513000,28.2059000,33.9432000,-39.5840000,-12.1890000,4.9520000,0.000000,0,0,0
8.690,-0.1322000,-0.0652000,9.6158000,35.6674000,28.1372000,33.8287000,-39.7340000,-12.0890000,5.1070000,0.000000,0,0,0
8.700,-0.1465000,-0.0628000,9.6158000,35.6293000,28.0151000,33.8211000,-39.6220000,-12.1210000,5.4410000,0.000000,0,0,0
8.710,-0.1537000,-0.0580000,9.6158000,35.6445000,27.8473000,33.8821000,-39.5320000,-12.3170000,5.5450000,0.000000,0,0,0
8.720,-0.1585000,-0.0532000,9.6170000,35.6827000,27.7176000,33.9508000,-39.4760000,-12.1830000,5.0910000,0.000000,0,0,0
8.730,-0.1621000,-0.0544000,9.6182000,35.7056000,27.6642000,34.0271000,-39.6840000,-12.6000000,5.4290000,0.000000,0,0,0
8.740,-0.1657000,-0.0604000,9.6206000,35.7285000,27.6489000,34.1415000,-39.5430000,-12.2630000,5.9480000,0.000000,0,0,0
8.750,-0.1657000,-0.0855000,9.6170000,35.6903000,27.6031000,34.3399000,-39.5990000,-12.5220000,5.7740000,0.000000,0,0,0
8.760,-0.1561000,-0.1214000,9.6182000,35.6674000,27.4811000,34.5612000,-39.6720000,-12.2860000,5.6190000,0.000000,0,0,0
8.770,-0.1489000,-0.1418000,9.6182000,35.7208000,27.3666000,34.6680000,-39.5550000,-12.1970000,5.9290000,0.000000,0,0,0
8.780,-0.1453000,-0.1453000,9.6194000,35.7361000,27.3819000,34.7519000,-39.3850000,-11.7750000,4.9470000,0.000000,0,0,0
8.790,-0.1274000,-0.1370000,9.6206000,35.7285000,27.4811000,34.7748000,-39.5400000,-12.3120000,5.0570000,0.000000,0,0,0
8.800,-0.1119000,-0.1262000,9.6182000,35.7208000,27.5955000,34.6756000,-39.6710000,-11.9250000,5.1210000,0.000000,0,0,0
8.810,-0.0987000,-0.1119000,9.6158000,35.7437000,27.6718000,34.5078000,-39.6860000,-12.1920000,5.1110000,0.000000,0,0,0
8.820,-0.0951000,-0.0975000,9.6158000,35.8276000,27.6871000,34.3170000,-39.4750000,-12.0230000,4.6370000,0.000000,0,0,0
8.830,-0.1059000,-0.0855000,9.6170000,35.9192000,27.6566000,34.1492000,-39.5840000,-12.3270000,4.7150000,0.000000,0,0,0
8.840,-0.1250000,-0.0784000,9.6170000,35.9497000,27.6337000,34.0500000,-39.9010000,-11.8760000,5.2100000,0.000000,0,0,0
8.850,-0.1418000,-0.0796000,9.6182000,35.9268000,27.6642000,33.9737000,-39.6050000,-12.2120000,5.2010000,0.000000,0,0,0
8.860,-0.1525000,-0.0807000,9.6182000,35.8963000,27.7786000,33.8516000,-39.2550000,-12.1540000,4.6010000,0.000000,0,0,0
8.870,-0.1537000,-0.0855000,9.6194000,35.8429000,27.9236000,33.6838000,-39.5230000,-12.2800000,4.7420000,0.000000,0,0,0
8.880,-0.1453000,-0.0879000,9.6206000,35.7666000,28.1143000,33.4625000,-39.6440000,-12.3870000,4.9370000,0.000000,0,0,0
8.890,-0.1286000,-0.0855000,9.6194000,35.6903000,28.3127000,33.2108000,-39.7140000,-12.3420000,5.5350000,0.000000,0,0,0
8.900,-0.1095000,-0.0796000,9.6170000,35.6369000,28.4195000,33.0200000,-39.4010000,-12.4300000,5.0430000,0.000000,0,0,0
8.910,-0.0987000,-0.0712000,9.6146000,35.6140000,28.3813000,32.9285000,-39.6200000,-11.8390000,4.7880000,0.000000,0,0,0
8.920,-0.0987000,-0.0628000,9.6146000,35.6064000,28.2898000,32.9208000,-39.7530000,-12.2020000,5.4760000,0.000000,0,0,0
8.930,-0.1083000,-0.0604000,9.6158000,35.5911000,28.1906000,33.0353000,-39.6320000,-12.1650000,5.1910000,0.000000,0,0,0
8.940,-0.1214000,-0.0616000,9.6158000,35.5682000,28.0762000,33.2642000,-39.6040000,-12.2460000,5.4810000,0.000000,0,0,0
8.950,-0.1334000,-0.0700000,9.6158000,35.5530000,27.9312000,33.5541000,-39.6110000,-12.1310000,5.5000000,0.000000,0,0,0
8.960,-0.1406000,-0.0819000,9.6170000,35.5835000,27.7710000,33.7982000,-39.5330000,-11.8230000,5.2160000,0.000000,0,0,0
8.970,-0.1442000,-0.0999000,9.6182000,35.6598000,27.6718000,33.8898000,-39.7760000,-12.2030000,6.0030000,0.000000,0,0,0
8.980,-0.1442000,-0.1166000,9.6182000,35.7590000,27.6642000,33.8135000,-39.8030000,-11.7490000,5.1150000,0.000000,0,0,0
8.990,-0.1394000,-0.1274000,9.6206000,35.8582000,27.7176000,33.6609000,-39.8580000,-11.9750000,4.9880000,0.000000,0,0,0
9.000,-0.1346000,-0.1334000,9.6206000,35.9344000,27.7710000,33.5236000,-40.0980000,-11.8490000,4.8190000,0.000000,0,0,0
9.010,-0.1298000,-0.1334000,9.6206000,35.9879000,27.8091000,33.4625000,-39.9970000,-12.0720000,5.2150000,0.000000,0,0,0
9.020,-0.1274000,-0.1298000,9.6194000,36.0184000,27.8091000,33.4625000,-39.4230000,-11.8060000,5.5490000,0.000000,0,0,0
9.030,-0.1298000,-0.1238000,9.6170000,36.0336000,27.7710000,33.5159000,-39.6850000,-11.9830000,5.0170000,0.000000,0,0,0
9.040,-0.1358000,-0.1178000,9.6170000,36.0641000,27.7023000,33.5846000,-39.7490000,-11.8960000,5.6830000,0.000000,0,0,0
9.050,-0.1430000,-0.1142000,9.6194000,36.1023000,27.6871000,33.5999000,-39.7270000,-12.1670000,4.9180000,0.000000,0,0,0
9.060,-0.1453000,-0.1059000,9.6194000,36.1328000,27.7252000,33.5693000,-39.7310000,-12.1070000,5.4170000,0.000000,0,0,0
9.070,-0.1430000,-0.0927000,9.6194000,36.1328000,27.8168000,33.5159000,-39.5960000,-12.2670000,5.3710000,0.000000,0,0,0
9.080,-0.1370000,-0.0796000,9.6194000,36.0870000,27.9083000,33.5007000,-39.8220000,-11.9480000,5.5680000,0.000000,0,0,0
9.090,-0.1322000,-0.0676000,9.6182000,35.9955000,27.9770000,33.5922000,-39.8000000,-11.9400000,5.7390000,0.000000,0,0,0
9.100,-0.1274000,-0.0652000,9.6170000,35.8963000,28.0075000,33.8058000,-39.7540000,-11.9730000,4.6590000,0.000000,0,0,0
9.110,-0.1202000,-0.0664000,9.6182000,35.8047000,28.0075000,34.0729000,-39.8240000,-11.9860000,5.7570000,0.000000,0,0,0
9.120,-0.1178000,-0.0724000,9.6182000,35.7208000,28.0609000,34.3170000,-39.9850000,-12.3200000,5.2220000,0.000000,0,0,0
9.130,-0.1178000,-0.0843000,9.6182000,35.6445000,28.1982000,34.4315000,-39.2450000,-12.2380000,5.7940000,0.000000,0,0,0
9.140,-0.1190000,-0.0927000,9.6206000,35.5988000,28.3661000,34.3323000,-39.4500000,-12.2360000,5.3860000,0.000000,0,0,0
9.150,-0.1262000,-0.0891000,9.6218000,35.5682000,28.5492000,34.0958000,-39.8520000,-12.3380000,5.6150000,0.000000,0,0,0
9.160,-0.1370000,-0.0819000,9.6229000,35.5453000,28.6636000,33.8516000,-39.8780000,-12.3710000,5.8770000,0.000000,0,0,0
9.170,-0.1442000,-0.0760000,9.6218000,35.5530000,28.6713000,33.6914000,-39.5820000,-12.3680000,4.9990000,0.000000,0,0,0
9.180,-0.1489000,-0.0796000,9.6206000,35.5988000,28.5339000,33.6761000,-39.6940000,-12.0340000,5.6470000,0.000000,0,0,0
9.190,-0.1465000,-0.0879000,9.6194000,35.6064000,28.4119000,33.7753000,-39.6050000,-12.3480000,4.9200000,0.000000,0,0,0
9.200,-0.1442000,-0.0975000,9.6194000,35.5988000,28.2822000,33.8898000,-39.8220000,-12.4230000,5.3770000,0.000000,0,0,0
9.210,-0.1430000,-0.1059000,9.6170000,35.6293000,28.1601000,33.9508000,-39.7880000,-12.3370000,5.5000000,0.000000,0,0,0
9.220,-0.1406000,-0.1083000,9.6170000,35.6979000,28.0304000,33.9584000,-39.5700000,-12.3200000,5.8190000,0.000000,0,0,0
9.230,-0.1346000,-0.1023000,9.6170000,35.7742000,27.9617000,33.8516000,-39.7810000,-12.2590000,5.3950000,0.000000,0,0,0
9.240,-0.1334000,-0.0927000,9.6182000,35.8200000,27.9617000,33.6456000,-39.6670000,-12.3740000,5.7490000,0.000000,0,0,0
9.250,-0.1346000,-0.0855000,9.6194000,35.8353000,28.0075000,33.4091000,-39.8980000,-12.0670000,5.4000000,0.000000,0,0,0
9.260,-0.1406000,-0.0855000,9.6194000,35.8276000,28.0609000,33.2184000,-39.9190000,-12.4330000,4.8510000,0.000000,0,0,0
9.270,-0.1501000,-0.0915000,9.6206000,35.8200000,28.1372000,33.0963000,-39.8910000,-12.4190000,4.7460000,0.000000,0,0,0
9.280,-0.1597000,-0.0975000,9.6218000,35.8124000,28.1754000,33.0811000,-39.6830000,-12.2740000,4.4130000,0.000000,0,0,0
9.290,-0.1645000,-0.1011000,9.6206000,35.8200000,28.1525000,33.1879000,-39.8290000,-12.2630000,5.1590000,0.000000,0,0,0
9.300,-0.1597000,-0.0999000,9.6206000,35.8353000,28.1143000,33.3405000,-39.7220000,-12.2920000,5.0360000,0.000000,0,0,0
9.310,-0.1477000,-0.0963000,9.6206000,35.8200000,28.0838000,33.4625000,-39.6520000,-12.5100000,5.5280000,0.000000,0,0,0
9.320,-0.1382000,-0.0927000,9.6206000,35.7895000,28.0685000,33.5007000,-39.7450000,-12.4600000,4.8150000,0.000000,0,0,0
9.330,-0.1310000,-0.0891000,9.6194000,35.7666000,28.0685000,33.4549000,-39.6160000,-12.4310000,5.1140000,0.000000,0,0,0
9.340,-0.1310000,-0.0843000,9.6170000,35.7819000,28.0457000,33.3557000,-39.6530000,-12.5030000,5.1530000,0.000000,0,0,0
9.350,-0.1346000,-0.0784000,9.6158000,35.7819000,27.9846000,33.2947000,-39.7220000,-12.5810000,5.8380000,0.000000,0,0,0
9.360,-0.1418000,-0.0772000,9.6170000,35.7819000,27.8854000,33.3176000,-39.4750000,-12.3830000,5.5530000,0.000000,0,0,0
9.370,-0.1465000,-0.0819000,9.6182000,35.7971000,27.7863000,33.3786000,-39.7650000,-12.4860000,5.3930000,0.000000,0,0,0
9.380,-0.1465000,-0.0891000,9.6194000,35.8047000,27.7481000,33.4244000,-39.6660000,-12.1580000,5.2830000,0.000000,0,0,0
9.390,-0.1477000,-0.0975000,9.6218000,35.8047000,27.7710000,33.4396000,-39.4970000,-12.2110000,5.5390000,0.000000,0,0,0
9.400,-0.1489000,-0.1059000,9.6241000,35.8047000,27.8473000,33.4244000,-39.8350000,-12.2980000,5.0680000,0.000000,0,0,0
9.410,-0.1453000,-0.1083000,9.6253000,35.8047000,27.9465000,33.3939000,-39.7550000,-12.1170000,5.8750000,0.000000,0,0,0
9.420,-0.1418000,-0.1059000,9.6241000,35.7895000,28.0380000,33.3405000,-39.6740000,-12.2940000,5.8780000,0.000000,0,0,0
9.430,-0.1430000,-0.1035000,9.6206000,35.7819000,28.0762000,33.2947000,-40.0280000,-12.2980000,5.9540000,0.000000,0,0,0
9.440,-0.1442000,-0.0963000,9.6182000,35.7895000,28.0533000,33.2718000,-39.9150000,-12.0620000,6.2280000,0.000000,0,0,0
9.450,-0.1501000,-0.0903000,9.6170000,35.8200000,28.0151000,33.2794000,-39.8760000,-12.1160000,6.0620000,0.000000,0,0,0
9.460,-0.1585000,-0.0879000,9.6182000,35.8505000,27.9770000,33.3099000,-39.7230000,-12.3720000,5.6820000,0.000000,0,0,0
9.470,-0.1645000,-0.0891000,9.6206000,35.8505000,27.9312000,33.3710000,-39.5550000,-12.0880000,6.2260000,0.000000,0,0,0
9.480,-0.1657000,-0.0915000,9.6218000,35.8200000,27.9007000,33.4320000,-39.7640000,-12.0980000,6.0000000,0.000000,0,0,0
9.490,-0.1621000,-0.0939000,9.6241000,35.7513000,27.9236000,33.4473000,-39.7760000,-12.4130000,5.5920000,0.000000,0,0,0
9.500,-0.1537000,-0.0975000,9.6241000,35.6522000,27.9694000,33.4320000,-39.7080000,-12.4870000,5.5940000,0.000000,0,0,0
9.510,-0.1489000,-0.1047000,9.6229000,35.5682000,27.9999000,33.4244000,-39.8250000,-12.2950000,5.2750000,0.000000,0,0,0
9.520,-0.1489000,-0.1107000,9.6229000,35.5453000,27.9846000,33.4625000,-39.9530000,-12.0870000,5.5460000,0.000000,0,0,0
9.530,-0.1537000,-0.1142000,9.6229000,35.5682000,27.9465000,33.5312000,-39.8950000,-12.3940000,5.8480000,0.000000,0,0,0
9.540,-0.1597000,-0.1130000,9.6229000,35.6369000,27.9160000,33.6075000,-39.5800000,-12.2730000,5.6060000,0.000000,0,0,0
9.550,-0.1633000,-0.1059000,9.6229000,35.7208000,27.9007000,33.6914000,-39.8280000,-12.3710000,5.3380000,0.000000,0,0,0
9.560,-0.1609000,-0.0999000,9.6218000,35.7971000,27.8931000,33.7524000,-39.5150000,-12.5450000,5.0620000,0.000000,0,0,0
9.570,-0.1525000,-0.0963000,9.6194000,35.8429000,27.8778000,33.7677000,-39.5340000,-12.5200000,4.6230000,0.000000,0,0,0
9.580,-0.1442000,-0.0963000,9.6194000,35.8810000,27.8473000,33.7143000,-39.7300000,-12.5100000,5.0630000,0.000000,0,0,0
9.590,-0.1358000,-0.0975000,9.6206000,35.8887000,27.8625000,33.5770000,-39.6930000,-12.3780000,4.9430000,0.000000,0,0,0
9.600,-0.1310000,-0.0987000,9.6206000,35.8582000,27.9465000,33.3939000,-39.6770000,-12.3050000,4.9100000,0.000000,0,0,0
9.610,-0.1358000,-0.0975000,9.6206000,35.8047000,28.0304000,33.2413000,-39.7630000,-12.4410000,5.1850000,0.000000,0,0,0
9.620,-0.1442000,-0.0927000,9.6194000,35.7590000,28.0838000,33.1726000,-39.6680000,-12.2090000,5.1920000,0.000000,0,0,0
9.630,-0.1561000,-0.0879000,9.6182000,35.7361000,28.0914000,33.1802000,-39.8540000,-11.8350000,5.6520000,0.000000,0,0,0
9.640,-0.1693000,-0.0831000,9.6170000,35.7513000,28.0151000,33.2565000,-39.8260000,-12.1660000,5.5850000,0.000000,0,0,0
9.650,-0.1824000,-0.0831000,9.6182000,35.7971000,27.8625000,33.3862000,-39.7760000,-12.4480000,5.7820000,0.000000,0,0,0
9.660,-0.1860000,-0.0831000,9.6182000,35.8505000,27.7100000,33.5159000,-39.7870000,-12.5380000,5.4200000,0.000000,0,0,0
9.670,-0.1776000,-0.0843000,9.6206000,35.8658000,27.6260000,33.5999000,-39.6440000,-12.3580000,5.2200000,0.000000,0,0,0
9.680,-0.1621000,-0.0891000,9.6229000,35.8276000,27.6718000,33.6227000,-39.6210000,-12.0620000,5.1850000,0.000000,0,0,0
9.690,-0.1430000,-0.0987000,9.6253000,35.7590000,27.8168000,33.6075000,-39.4870000,-12.3010000,5.0010000,0.000000,0,0,0
9.700,-0.1238000,-0.1083000,9.6241000,35.6979000,27.9922000,33.5541000,-39.6470000,-12.4120000,5.5100000,0.000000,0,0,0
9.710,-0.1142000,-0.1142000,9.6229000,35.6750000,28.1219000,33.5159000,-39.5010000,-12.5590000,5.1760000,0.000000,0,0,0
9.720,-0.1142000,-0.1130000,9.6218000,35.6827000,28.1982000,33.4930000,-39.6050000,-12.5280000,5.1260000,0.000000,0,0,0
9.730,-0.1250000,-0.1059000,9.6182000,35.7285000,28.1677000,33.4930000,-40.0210000,-12.1550000,4.9580000,0.000000,0,0,0
9.740,-0.1406000,-0.0951000,9.6182000,35.7895000,28.0762000,33.5083000,-39.6490000,-11.9680000,5.0010000,0.000000,0,0,0
9.750,-0.1633000,-0.0831000,9.6218000,35.8276000,27.9999000,33.4854000,-39.8630000,-12.1680000,4.7210000,0.000000,0,0,0
9.760,-0.1693000,-0.0855000,9.6229000,35.7971000,27.9999000,33.4625000,-39.6040000,-12.2320000,4.8650000,0.000000,0,0,0
9.770,-0.1681000,-0.0903000,9.6218000,35.7666000,27.9846000,33.4625000,-39.5410000,-12.2550000,4.9300000,0.000000,0,0,0
9.780,-0.1645000,-0.0999000,9.6218000,35.7437000,27.9694000,33.4854000,-39.5930000,-12.3210000,4.7410000,0.000000,0,0,0
9.790,-0.1573000,-0.1095000,9.6218000,35.7513000,27.9770000,33.5083000,-39.6610000,-12.6630000,5.0670000,0.000000,0,0,0
9.800,-0.1501000,-0.1130000,9.6229000,35.7971000,27.9770000,33.5312000,-39.3990000,-12.3130000,5.1300000,0.000000,0,0,0
9.810,-0.1465000,-0.1107000,9.6241000,35.8200000,27.9999000,33.5312000,-39.5030000,-12.3030000,5.4710000,0.000000,0,0,0
9.820,-0.1501000,-0.1083000,9.6229000,35.8429000,28.0151000,33.4854000,-39.4460000,-12.2240000,4.8790000,0.000000,0,0,0
9.830,-0.1597000,-0.1047000,9.6206000,35.8810000,28.0151000,33.4015000,-39.7010000,-12.3870000,5.1350000,0.000000,0,0,0
9.840,-0.1657000,-0.0999000,9.6218000,35.9192000,28.0228000,33.3099000,-39.3750000,-12.3470000,4.8050000,0.000000,0,0,0
9.850,-0.1705000,-0.0987000,9.6229000,35.9192000,28.0533000,33.2489000,-39.6810000,-12.1720000,5.1600000,0.000000,0,0,0
9.860,-0.1705000,-0.1011000,9.6229000,35.9039000,28.0838000,33.2489000,-39.6140000,-12.2630000,5.2010000,0.000000,0,0,0
9.870,-0.1621000,-0.1095000,9.6218000,35.8734000,28.1525000,33.3023000,-39.6720000,-12.3150000,5.6670000,0.000000,0,0,0
9.880,-0.1537000,-0.1178000,9.6218000,35.8810000,28.2288000,33.3710000,-39.5910000,-12.2610000,5.1190000,0.000000,0,0,0
9.890,-0.1513000,-0.1190000,9.6218000,35.9192000,28.2745000,33.4625000,-39.5160000,-12.1590000,5.4930000,0.000000,0,0,0
9.900,-0.1525000,-0.1130000,9.6206000,35.9573000,28.2440000,33.5922000,-39.6530000,-12.1010000,4.7030000,0.000000,0,0,0
9.910,-0.1561000,-0.1071000,9.6206000,36.0260000,28.1601000,33.7219000,-39.7310000,-12.5400000,5.2310000,0.000000,0,0,0
9.920,-0.1597000,-0.0975000,9.6194000,36.0947000,28.0838000,33.7982000,-39.7030000,-12.2590000,4.6670000,0.000000,0,0,0
9.930,-0.1645000,-0.0867000,9.6182000,36.1252000,28.0228000,33.7906000,-39.7490000,-12.0550000,5.1300000,0.000000,0,0,0
9.940,-0.1657000,-0.0807000,9.6182000,36.1023000,27.9770000,33.7219000,-39.7280000,-12.1260000,5.3430000,0.000000,0,0,0
9.950,-0.1657000,-0.0748000,9.6182000,36.0413000,27.9388000,33.6456000,-39.5980000,-12.4200000,5.0540000,0.000000,0,0,0
9.960,-0.1753000,-0.0736000,9.6182000,35.9802000,27.8244000,33.6075000,-39.8210000,-12.2560000,4.8620000,0.000000,0,0,0
9.970,-0.1872000,-0.0796000,9.6206000,35.9573000,27.5803000,33.7219000,-39.3340000,-12.2760000,4.7950000,0.000000,0,0,0
9.980,-0.1920000,-0.0927000,9.6229000,36.0184000,27.2293000,33.9890000,-39.7100000,-12.3670000,4.9380000,0.000000,0,0,0
9.990,-0.1836000,-0.0999000,9.6253000,36.1481000,26.8707000,34.2789000,-39.5200000,-12.5500000,4.8820000,0.000000,0,0,0
10.000,-0.1657000,-0.1059000,9.6277000,36.2396000,26.6953000,34.4696000,-39.5720000,-12.5520000,4.6500000,0.000000,0,0,0
10.010,-0.1442000,-0.1059000,9.6265000,36.2701000,26.7334000,34.4772000,-39.7600000,-12.6610000,5.3860000,0.000000,0,0,0
10.020,-0.1214000,-0.1095000,9.6241000,36.2473000,26.9089000,34.2941000,-39.5520000,-12.6030000,4.5840000,0.000000,0,0,0
10.030,-0.1071000,-0.1154000,9.6206000,36.2091000,27.1149000,34.0042000,-39.5790000,-12.9040000,5.1620000,0.000000,0,0,0
10.040,-0.1095000,-0.1178000,9.6182000,36.2167000,27.2598000,33.7372000,-40.0140000,-12.4060000,4.5780000,0.000000,0,0,0
10.050,-0.1226000,-0.1178000,9.6194000,36.2167000,27.3590000,33.6075000,-39.7330000,-12.5700000,5.4030000,0.000000,0,0,0
10.060,-0.1418000,-0.1166000,9.6206000,36.1862000,27.4048000,33.6533000,-39.8390000,-12.3390000,5.2460000,0.000000,0,0,0
10.070,-0.1597000,-0.1142000,9.6218000,36.1786000,27.3895000,33.8364000,-39.9160000,-12.3730000,5.3870000,0.000000,0,0,0
10.080,-0.1669000,-0.1047000,9.6206000,36.1862000,27.3209000,34.0652000,-39.7750000,-12.4610000,5.1490000,0.000000,0,0,0
10.090,-0.1669000,-0.0903000,9.6194000,36.1633000,27.1988000,34.2789000,-39.6360000,-12.2420000,5.0560000,0.000000,0,0,0
10.100,-0.1621000,-0.0760000,9.6170000,36.1099000,27.0081000,34.4467000,-39.8620000,-12.2610000,4.5750000,0.000000,0,0,0
10.110,-0.1513000,-0.0640000,9.6146000,36.0565000,26.7487000,34.5612000,-39.5830000,-12.4190000,4.9650000,0.000000,0,0,0
10.120,-0.1406000,-0.0580000,9.6134000,36.0107000,26.4587000,34.6222000,-39.4330000,-12.5920000,4.8380000,0.000000,0,0,0
10.130,-0.1358000,-0.0592000,9.6134000,36.0260000,26.1917000,34.5840000,-39.5860000,-12.6880000,5.4780000,0.000000,0,0,0
10.140,-0.1334000,-0.0628000,9.6158000,36.0718000,26.0391000,34.4772000,-39.8320000,-12.1950000,5.6110000,0.000000,0,0,0
10.150,-0.1346000,-0.0676000,9.6182000,36.1023000,26.0239000,34.3475000,-39.6340000,-12.1960000,5.3450000,0.000000,0,0,0
10.160,-0.1334000,-0.0772000,9.6194000,36.0718000,26.1383000,34.2407000,-39.7760000,-12.3100000,5.2290000,0.000000,0,0,0
10.170,-0.1298000,-0.0903000,9.6218000,36.0107000,26.2985000,34.1797000,-39.7190000,-12.3030000,5.0240000,0.000000,0,0,0
10.180,-0.1262000,-0.1011000,9.6229000,35.9955000,26.3977000,34.1797000,-39.7570000,-12.1550000,4.7990000,0.000000,0,0,0
10.190,-0.1202000,-0.1083000,9.6218000,36.0031000,26.3596000,34.2789000,-39.5520000,-12.5680000,5.0380000,0.000000,0,0,0
10.200,-0.1119000,-0.1083000,9.6194000,36.0107000,26.1688000,34.4162000,-39.5740000,-12.3020000,5.1390000,0.000000,0,0,0
10.210,-0.1023000,-0.1035000,9.6182000,36.0565000,25.8484000,34.4925000,-39.8340000,-12.3480000,5.4510000,0.000000,0,0,0
10.220,-0.0987000,-0.0951000,9.6158000,36.1176000,25.5127000,34.4543000,-39.6050000,-12.4560000,4.9290000,0.000000,0,0,0
10.230,-0.0987000,-0.0879000,9.6158000,36.1938000,25.2609000,34.2941000,-39.3730000,-12.3440000,5.4650000,0.000000,0,0,0
10.240,-0.1035000,-0.0843000,9.6158000,36.2320000,25.1389000,34.0805000,-39.6650000,-12.6590000,4.9040000,0.000000,0,0,0
10.250,-0.1119000,-0.0843000,9.6182000,36.2091000,25.1083000,33.9050000,-39.9040000,-12.3240000,4.3740000,0.000000,0,0,0
10.260,-0.1214000,-0.0891000,9.6194000,36.1176000,25.0397000,33.8898000,-39.5820000,-12.3020000,4.6960000,0.000000,0,0,0
10.270,-0.1250000,-0.0903000,9.6158000,36.1023000,24.7421000,34.1110000,-39.8000000,-12.4580000,4.8100000,0.000000,0,0,0
10.280,-0.1238000,-0.0843000,9.6098000,36.1023000,24.1318000,34.5001000,-39.6520000,-12.6040000,4.9980000,0.000000,0,0,0
10.290,-0.1166000,-0.0819000,9.6074000,36.0413000,23.3917000,34.9655000,-39.8520000,-12.2730000,4.9580000,0.000000,0,0,0
10.300,-0.1047000,-0.0784000,9.6050000,35.9879000,22.6440000,35.3546000,-39.8440000,-12.3720000,4.9490000,0.000000,0,0,0
10.310,-0.0784000,-0.0748000,9.6050000,35.8887000,21.9955000,35.6445000,-39.9210000,-12.6720000,4.9300000,0.000000,0,0,0
10.320,-0.0484000,-0.0772000,9.6050000,35.7208000,21.4081000,35.8429000,-39.5200000,-12.6360000,5.0760000,0.000000,0,0,0
10.330,-0.0209000,-0.0867000,9.6038000,35.5225000,20.7901000,35.9268000,-39.6480000,-12.6140000,4.8460000,0.000000,0,0,0
10.340,0.0054000,-0.0987000,9.6002000,35.2936000,20.0500000,35.9497000,-39.6190000,-12.5190000,5.3790000,0.000000,0,0,0
10.350,0.0221000,-0.1107000,9.5966000,35.0876000,19.1345000,35.9879000,-39.6370000,-12.5810000,4.9290000,0.000000,0,0,0
10.360,0.0269000,-0.1202000,9.5942000,35.0418000,18.1122000,36.0413000,-39.5180000,-12.3960000,4.9330000,0.000000,0,0,0
10.370,0.0233000,-0.1238000,9.5978000,35.1562000,17.2806000,36.0565000,-39.8770000,-12.6930000,4.4840000,0.000000,0,0,0
10.380,0.0257000,-0.1166000,9.6038000,35.3928000,16.9144000,35.9879000,-39.8690000,-12.6120000,4.8030000,0.000000,0,0,0
10.390,0.0365000,-0.1130000,9.6074000,35.5530000,17.0135000,35.7971000,-39.8900000,-12.5400000,4.7150000,0.000000,0,0,0
10.400,0.0568000,-0.1142000,9.6038000,35.5453000,17.3416000,35.5606000,-39.7250000,-12.6480000,4.6250000,0.000000,0,0,0
10.410,0.0843000,-0.1166000,9.5966000,35.4004000,17.5781000,35.3622000,-39.8030000,-12.1360000,4.6190000,0.000000,0,0,0
10.420,0.1071000,-0.1178000,9.5871000,35.1944000,17.4866000,35.2707000,-39.8360000,-12.5370000,4.7320000,0.000000,0,0,0
10.430,0.1238000,-0.1166000,9.5775000,34.9731000,16.9449000,35.3165000,-39.8250000,-12.6830000,4.5130000,0.000000,0,0,0
10.440,0.1394000,-0.1083000,9.5715000,34.7748000,16.0370000,35.4233000,-39.9800000,-12.6230000,4.3460000,0.000000,0,0,0
10.450,0.1501000,-0.1035000,9.5703000,34.6909000,14.9765000,35.5682000,-40.0630000,-12.9300000,4.6790000,0.000000,0,0,0
10.460,0.1693000,-0.1011000,9.5703000,34.8282000,14.0152000,35.6903000,-40.2150000,-12.8090000,4.4760000,0.000000,0,0,0
10.470,0.1968000,-0.1035000,9.5739000,35.2020000,13.4354000,35.6750000,-40.1660000,-13.0540000,4.4940000,0.000000,0,0,0
10.480,0.2315000,-0.1071000,9.5787000,35.6903000,13.4735000,35.4843000,-40.3060000,-12.4690000,4.1670000,0.000000,0,0,0
10.490,0.2781000,-0.1130000,9.5835000,36.0718000,14.1068000,35.1105000,-40.4930000,-12.7940000,3.9230000,0.000000,0,0,0
10.500,0.3248000,-0.1274000,9.5847000,36.3388000,15.1138000,34.5917000,-40.3330000,-12.8990000,4.2080000,0.000000,0,0,0
10.510,0.3726000,-0.1465000,9.5823000,36.5067000,16.1667000,33.9966000,-40.1160000,-12.7960000,3.8020000,0.000000,0,0,0
10.520,0.4229000,-0.1513000,9.5751000,36.5982000,17.0288000,33.3405000,-40.2310000,-12.5960000,4.0380000,0.000000,0,0,0
10.530,0.4624000,-0.1465000,9.5679000,36.6440000,17.4637000,32.6233000,-40.2150000,-12.5360000,3.6900000,0.000000,0,0,0
10.540,0.4815000,-0.1238000,9.5595000,36.7126000,17.3492000,31.9214000,-40.4060000,-12.4980000,3.4620000,0.000000,0,0,0
10.550,0.4803000,-0.0831000,9.5512000,36.7661000,16.6931000,31.3568000,-40.6570000,-12.5480000,3.4060000,0.000000,0,0,0
10.560,0.4695000,-0.0484000,9.5416000,36.7661000,15.5487000,31.0516000,-40.4130000,-12.6200000,3.9350000,0.000000,0,0,0
10.570,0.4540000,-0.0281000,9.5284000,36.7126000,14.0610000,31.0516000,-40.6180000,-12.3370000,3.8130000,0.000000,0,0,0
10.580,0.4408000,-0.0245000,9.5249000,36.5143000,12.5504000,31.2805000,-40.4230000,-12.2630000,3.3620000,0.000000,0,0,0
10.590,0.4313000,-0.0401000,9.5272000,36.2473000,11.2839000,31.6238000,-40.7730000,-12.4140000,3.5700000,0.000000,0,0,0
10.600,0.4325000,-0.0676000,9.5320000,36.0031000,10.4218000,31.9519000,-40.6690000,-12.5540000,2.9880000,0.000000,0,0,0
10.610,0.4444000,-0.0915000,9.5368000,35.8734000,9.9640000,32.2342000,-40.9750000,-12.7450000,3.4210000,0.000000,0,0,0
10.620,0.4779000,-0.1071000,9.5380000,35.8200000,9.8648000,32.4631000,-40.8110000,-12.6960000,2.8820000,0.000000,0,0,0
10.630,0.5222000,-0.1166000,9.5344000,35.8429000,9.9945000,32.5775000,-40.8920000,-12.7060000,2.8090000,0.000000,0,0,0
10.640,0.5736000,-0.1119000,9.5260000,35.9726000,10.2310000,32.5928000,-41.1120000,-12.4160000,2.7170000,0.000000,0,0,0
10.650,0.6227000,-0.1011000,9.5165000,36.1099000,10.4294000,32.5928000,-40.7670000,-12.5520000,2.3070000,0.000000,0,0,0
10.660,0.6574000,-0.0796000,9.5069000,36.2091000,10.5209000,32.6157000,-40.5950000,-12.5800000,2.7910000,0.000000,0,0,0
10.670,0.6944000,-0.0556000,9.4985000,36.2244000,10.5667000,32.6767000,-40.9810000,-12.8590000,2.6570000,0.000000,0,0,0
10.680,0.7160000,-0.0484000,9.4949000,36.2396000,10.4752000,32.7759000,-41.0540000,-12.8030000,2.6970000,0.000000,0,0,0
10.690,0.7255000,-0.0568000,9.4902000,36.3388000,10.2463000,32.9666000,-40.9870000,-12.6570000,2.7960000,0.000000,0,0,0
10.700,0.7399000,-0.0784000,9.4854000,36.5372000,10.0403000,33.1345000,-40.9280000,-12.7710000,1.9450000,0.000000,0,0,0
10.710,0.7543000,-0.0987000,9.4794000,36.7661000,9.9716000,33.1802000,-41.2660000,-12.4350000,2.1840000,0.000000,0,0,0
10.720,0.7913000,-0.1130000,9.4734000,36.9263000,10.0861000,33.1345000,-41.2010000,-12.6500000,2.3460000,0.000000,0,0,0
10.730,0.8332000,-0.1190000,9.4698000,36.9873000,10.2310000,32.9590000,-41.4020000,-12.6150000,2.5250000,0.000000,0,0,0
10.740,0.8763000,-0.1154000,9.4603000,36.9415000,10.1318000,32.7454000,-41.2230000,-12.3340000,2.4050000,0.000000,0,0,0
10.750,0.9193000,-0.0999000,9.4495000,36.8271000,9.5520000,32.5851000,-41.4910000,-12.8400000,2.9320000,0.000000,0,0,0
10.760,0.9540000,-0.0784000,9.4351000,36.7203000,8.4839000,32.5165000,-41.4060000,-12.7330000,2.2510000,0.000000,0,0,0
