time,accel_x,accel_y,accel_z,gyro_x,gyro_y,gyro_z,mag_x,mag_y,mag_z,baro,gps_lat,gps_lon,gps_alt
0.780,-0.2763000,0.1148000,9.5583000,58.5938000,55.7632000,61.6608000,-40.4690000,-10.9120000,6.7660000,0.000000,0,0,0
0.790,-0.2763000,0.1148000,9.5583000,58.5938000,55.7632000,61.6608000,-40.4690000,-10.9120000,6.7660000,0.000000,0,0,0
0.800,-0.2955000,0.0754000,9.5536000,57.7011000,55.4123000,61.1496000,-40.2320000,-10.8320000,6.6120000,0.000000,0,0,0
0.810,-0.3063000,0.0167000,9.5560000,56.8619000,54.8935000,60.8597000,-40.4970000,-10.8400000,5.9080000,0.000000,0,0,0
0.820,-0.3098000,-0.0502000,9.5667000,56.5109000,54.1840000,60.6995000,-40.0420000,-10.8580000,6.5200000,0.000000,0,0,0
0.830,-0.3015000,-0.1172000,9.5763000,56.6483000,53.2913000,60.6003000,-40.2990000,-10.5040000,5.8200000,0.000000,0,0,0
0.840,-0.2823000,-0.1687000,9.5847000,56.9611000,52.3300000,60.5774000,-40.3800000,-10.7800000,6.4190000,0.000000,0,0,0
0.850,-0.2476000,-0.1998000,9.6002000,57.3807000,51.5213000,60.6155000,-40.6310000,-10.7730000,6.4730000,0.000000,0,0,0
0.860,-0.1974000,-0.2153000,9.6218000,57.7774000,51.1017000,60.7605000,-40.3870000,-10.5620000,5.7980000,0.000000,0,0,0
0.870,-0.1412000,-0.2225000,9.6445000,57.8995000,51.2695000,61.0733000,-40.0470000,-10.9850000,5.7380000,0.000000,0,0,0
0.880,-0.0897000,-0.2261000,9.6576000,57.8079000,51.8875000,61.4243000,-40.4930000,-10.5620000,5.8750000,0.000000,0,0,0
0.890,-0.0634000,-0.2165000,9.6576000,57.6477000,52.6047000,61.6608000,-40.1930000,-10.7570000,5.4160000,0.000000,0,0,0
0.900,-0.0658000,-0.1890000,9.6469000,57.5562000,53.1006000,61.6989000,-39.9510000,-10.9810000,6.3410000,0.000000,0,0,0
0.910,-0.0921000,-0.1424000,9.6301000,57.6859000,53.2074000,61.5005000,-40.3270000,-10.3590000,5.7660000,0.000000,0,0,0
0.920,-0.1268000,-0.0802000,9.6098000,57.9453000,52.9785000,61.1572000,-40.0970000,-10.4750000,5.2110000,0.000000,0,0,0
0.930,-0.1579000,-0.0215000,9.5895000,58.2047000,52.4979000,60.7758000,-40.4340000,-10.5470000,5.4580000,0.000000,0,0,0
0.940,-0.1771000,0.0144000,9.5823000,58.4030000,51.9485000,60.3561000,-40.5190000,-10.5310000,5.5970000,0.000000,0,0,0
0.950,-0.1818000,0.0227000,9.5847000,58.4793000,51.5976000,59.8297000,-40.3010000,-10.6780000,6.1680000,0.000000,0,0,0
0.960,-0.1818000,0.0108000,9.5930000,58.3649000,51.6205000,59.2194000,-40.3860000,-10.6280000,5.5190000,0.000000,0,0,0
0.970,-0.1806000,-0.0526000,9.6038000,57.8156000,52.2537000,58.7158000,-40.1290000,-10.5630000,5.3970000,0.000000,0,0,0
0.980,-0.1675000,-0.1125000,9.6134000,57.3883000,52.6962000,58.7769000,-40.3220000,-10.3910000,5.7300000,0.000000,0,0,0
0.990,-0.1436000,-0.1663000,9.6229000,57.1518000,52.9785000,58.9905000,-40.4930000,-10.6780000,5.7750000,0.000000,0,0,0
1.000,-0.1160000,-0.1986000,9.6289000,57.2281000,53.0014000,59.1660000,-40.3220000,-10.5930000,5.5140000,0.000000,0,0,0
1.010,-0.1005000,-0.1890000,9.6277000,57.5180000,52.8336000,59.2422000,-40.4960000,-10.8240000,5.3900000,0.000000,0,0,0
1.020,-0.1017000,-0.1519000,9.6182000,57.8537000,52.5131000,59.3338000,-40.3430000,-10.5260000,5.6810000,0.000000,0,0,0
1.030,-0.1184000,-0.1125000,9.6074000,58.0673000,52.1469000,59.5169000,-40.5480000,-10.6390000,5.3520000,0.000000,0,0,0
1.040,-0.1495000,-0.0825000,9.5978000,58.1589000,51.7731000,59.7534000,-40.6620000,-10.8400000,5.3490000,0.000000,0,0,0
1.050,-0.1854000,-0.0802000,9.5942000,58.1512000,51.4374000,59.9899000,-40.4630000,-10.6480000,5.2070000,0.000000,0,0,0
1.060,-0.2082000,-0.1017000,9.5954000,57.9987000,51.2924000,60.2646000,-40.3210000,-10.5700000,5.4240000,0.000000,0,0,0
1.070,-0.2082000,-0.1256000,9.6002000,57.7621000,51.3458000,60.5164000,-40.8730000,-10.9740000,5.7950000,0.000000,0,0,0
1.080,-0.1854000,-0.1364000,9.6062000,57.5485000,51.5747000,60.7071000,-40.4280000,-10.6470000,6.3020000,0.000000,0,0,0
1.090,-0.1483000,-0.1316000,9.6134000,57.3883000,51.9485000,60.8673000,-40.5360000,-10.7060000,6.3370000,0.000000,0,0,0
1.100,-0.1125000,-0.1208000,9.6194000,57.2968000,52.4292000,61.0275000,-40.1790000,-10.7210000,6.4890000,0.000000,0,0,0
1.110,-0.0873000,-0.1113000,9.6241000,57.3044000,52.8412000,61.1649000,-40.4740000,-10.6580000,6.0750000,0.000000,0,0,0
1.120,-0.0766000,-0.1101000,9.6253000,57.4570000,53.0853000,61.1801000,-40.4480000,-11.0770000,5.5380000,0.000000,0,0,0
1.130,-0.0813000,-0.1065000,9.6218000,57.7164000,53.1540000,60.9894000,-40.4650000,-10.6990000,5.3650000,0.000000,0,0,0
1.140,-0.0981000,-0.0945000,9.6158000,57.9071000,53.1540000,60.7071000,-40.4180000,-10.3440000,5.5640000,0.000000,0,0,0
1.150,-0.1268000,-0.0825000,9.6110000,57.8995000,53.2150000,60.5469000,-40.5610000,-10.5870000,5.1840000,0.000000,0,0,0
1.160,-0.1543000,-0.0849000,9.6062000,57.7316000,53.3371000,60.6232000,-40.4600000,-10.2190000,6.2190000,0.000000,0,0,0
1.170,-0.1735000,-0.0993000,9.6014000,57.4417000,53.4668000,60.8521000,-40.3990000,-10.6340000,5.7940000,0.000000,0,0,0
1.180,-0.1842000,-0.1101000,9.5990000,57.1365000,53.5202000,61.0962000,-40.4490000,-10.4540000,5.8500000,0.000000,0,0,0
1.190,-0.1842000,-0.1077000,9.6014000,56.9153000,53.5278000,61.2564000,-40.7040000,-10.8110000,6.7110000,0.000000,0,0,0
1.200,-0.1782000,-0.0945000,9.6026000,56.8085000,53.5126000,61.2793000,-40.6860000,-10.7150000,6.7900000,0.000000,0,0,0
1.210,-0.1699000,-0.0718000,9.6002000,56.7932000,53.3905000,61.1267000,-40.7800000,-10.7860000,6.8060000,0.000000,0,0,0
1.220,-0.1639000,-0.0467000,9.5954000,56.8390000,53.1387000,60.8444000,-40.7780000,-10.9210000,6.0550000,0.000000,0,0,0
1.230,-0.1615000,-0.0275000,9.5930000,56.9534000,52.7725000,60.4401000,-40.4930000,-10.9360000,6.6760000,0.000000,0,0,0
1.240,-0.1543000,-0.0191000,9.5966000,57.0908000,52.4521000,59.9670000,-40.6060000,-10.7040000,7.2180000,0.000000,0,0,0
1.250,-0.1519000,-0.0263000,9.6002000,57.0984000,52.3834000,59.5703000,-40.1240000,-10.8760000,6.2610000,0.000000,0,0,0
1.260,-0.1424000,-0.0490000,9.6062000,56.9992000,52.5436000,59.2651000,-40.3030000,-10.8240000,5.9370000,0.000000,0,0,0
1.270,-0.1244000,-0.0837000,9.6110000,56.8695000,52.8259000,59.0897000,-40.6380000,-10.8020000,6.1690000,0.000000,0,0,0
1.280,-0.1053000,-0.1232000,9.6170000,56.7703000,53.0624000,59.0363000,-40.5980000,-11.1000000,5.4460000,0.000000,0,0,0
1.290,-0.0873000,-0.1723000,9.6241000,56.8085000,53.1693000,59.1202000,-40.7170000,-10.6140000,5.6270000,0.000000,0,0,0
1.300,-0.0706000,-0.2213000,9.6301000,57.0221000,53.1387000,59.2575000,-40.7480000,-10.7680000,5.2190000,0.000000,0,0,0
1.310,-0.0658000,-0.2536000,9.6349000,57.3196000,53.0930000,59.4101000,-40.6540000,-10.6380000,5.8800000,0.000000,0,0,0
1.320,-0.0718000,-0.2596000,9.6373000,57.6324000,53.0930000,59.5932000,-40.8500000,-10.7280000,6.1370000,0.000000,0,0,0
1.330,-0.0885000,-0.2428000,9.6361000,57.8461000,53.2227000,59.8679000,-40.6730000,-11.0320000,5.4600000,0.000000,0,0,0
1.340,-0.1065000,-0.2058000,9.6289000,57.9147000,53.4210000,60.1959000,-40.9020000,-10.7430000,6.0330000,0.000000,0,0,0
1.350,-0.1232000,-0.1627000,9.6194000,57.9071000,53.6118000,60.4706000,-40.8180000,-10.8750000,6.1680000,0.000000,0,0,0
1.360,-0.1388000,-0.1244000,9.6098000,57.8995000,53.6728000,60.6079000,-40.5880000,-10.7650000,5.9670000,0.000000,0,0,0
1.370,-0.1483000,-0.0933000,9.6026000,57.8461000,53.6041000,60.6232000,-40.7520000,-10.9240000,5.8500000,0.000000,0,0,0
1.380,-0.1591000,-0.0778000,9.5978000,57.7927000,53.3829000,60.5469000,-40.6200000,-10.6110000,6.1100000,0.000000,0,0,0
1.390,-0.1699000,-0.0802000,9.5918000,57.7698000,52.9861000,60.4019000,-40.6480000,-10.8270000,5.2460000,0.000000,0,0,0
1.400,-0.1830000,-0.0873000,9.5883000,57.7774000,52.5055000,60.2493000,-40.7800000,-10.8590000,5.8480000,0.000000,0,0,0
1.410,-0.1890000,-0.0897000,9.5895000,57.7927000,52.0554000,60.1425000,-40.6080000,-10.4620000,6.1670000,0.000000,0,0,0
1.420,-0.1866000,-0.0933000,9.5942000,57.7469000,51.7654000,60.1883000,-40.5100000,-10.6020000,6.0930000,0.000000,0,0,0
1.430,-0.1759000,-0.1017000,9.6026000,57.6324000,51.7197000,60.4095000,-40.6540000,-10.7450000,5.9830000,0.000000,0,0,0
1.440,-0.1531000,-0.1160000,9.6122000,57.5027000,51.8417000,60.6918000,-40.7880000,-10.6080000,5.6850000,0.000000,0,0,0
1.450,-0.1244000,-0.1292000,9.6218000,57.3730000,52.1164000,60.9055000,-40.8510000,-10.8430000,5.7200000,0.000000,0,0,0
1.460,-0.1005000,-0.1400000,9.6277000,57.2815000,52.4826000,60.9741000,-40.8020000,-10.6080000,6.0960000,0.000000,0,0,0
1.470,-0.0861000,-0.1424000,9.6289000,57.2205000,52.8717000,60.9055000,-40.6880000,-10.6650000,6.6120000,0.000000,0,0,0
1.480,-0.0897000,-0.1280000,9.6229000,57.1671000,53.3829000,60.6918000,-40.5470000,-10.5450000,5.7740000,0.000000,0,0,0
1.490,-0.1125000,-0.1125000,9.6134000,57.1976000,53.5202000,60.5392000,-40.5550000,-10.7610000,5.7390000,0.000000,0,0,0
1.500,-0.1364000,-0.0981000,9.6038000,57.2815000,53.4439000,60.3561000,-40.4000000,-10.5710000,5.5850000,0.000000,0,0,0
1.510,-0.1603000,-0.0909000,9.5966000,57.3349000,53.2455000,60.1807000,-40.7210000,-10.5400000,6.1250000,0.000000,0,0,0
1.520,-0.1711000,-0.0933000,9.5966000,57.3578000,53.0014000,60.0586000,-40.6700000,-10.9480000,6.1840000,0.000000,0,0,0
1.530,-0.1711000,-0.1089000,9.6002000,57.3654000,52.7725000,59.9899000,-40.3880000,-10.9670000,6.4650000,0.000000,0,0,0
1.540,-0.1627000,-0.1232000,9.6026000,57.4036000,52.5284000,59.9060000,-40.2740000,-10.9100000,5.9500000,0.000000,0,0,0
1.550,-0.1507000,-0.1316000,9.6074000,57.4570000,52.3148000,59.8221000,-40.6260000,-10.6960000,6.0020000,0.000000,0,0,0
1.560,-0.1376000,-0.1364000,9.6110000,57.5027000,52.1622000,59.7839000,-40.4830000,-10.9190000,5.9380000,0.000000,0,0,0
1.570,-0.1232000,-0.1436000,9.6146000,57.5333000,52.0554000,59.8450000,-40.9660000,-10.7790000,5.9100000,0.000000,0,0,0
1.580,-0.1113000,-0.1531000,9.6194000,57.6019000,51.9867000,59.9747000,-40.8050000,-11.0910000,6.2690000,0.000000,0,0,0
1.590,-0.1005000,-0.1651000,9.6241000,57.6935000,52.0020000,60.1578000,-41.0050000,-10.9040000,6.2890000,0.000000,0,0,0
1.600,-0.0945000,-0.1711000,9.6253000,57.7545000,52.1317000,60.3409000,-40.4830000,-10.9190000,6.1140000,0.000000,0,0,0
1.610,-0.0993000,-0.1699000,9.6218000,57.7393000,52.2842000,60.5621000,-40.6460000,-10.6300000,6.3740000,0.000000,0,0,0
1.620,-0.1101000,-0.1639000,9.6182000,57.6935000,52.4216000,60.8368000,-40.7180000,-10.6090000,6.1130000,0.000000,0,0,0
1.630,-0.1184000,-0.1519000,9.6134000,57.6859000,52.5436000,61.0962000,-40.4270000,-10.6690000,6.3880000,0.000000,0,0,0
1.640,-0.1196000,-0.1328000,9.6110000,57.7087000,52.6581000,61.2335000,-40.9160000,-10.4270000,5.6570000,0.000000,0,0,0
1.650,-0.1148000,-0.1041000,9.6086000,57.6630000,52.8030000,61.2717000,-40.8360000,-10.6130000,5.7160000,0.000000,0,0,0
1.660,-0.1136000,-0.0825000,9.6074000,57.5409000,52.9556000,61.2869000,-40.5380000,-10.7150000,5.9040000,0.000000,0,0,0
1.670,-0.1136000,-0.0802000,9.6062000,57.4112000,53.0624000,61.3174000,-40.4570000,-10.8860000,5.7220000,0.000000,0,0,0
1.680,-0.1148000,-0.0969000,9.6026000,57.3502000,53.1006000,61.3861000,-40.4990000,-10.7770000,5.6910000,0.000000,0,0,0
1.690,-0.1172000,-0.1125000,9.6038000,57.5180000,52.8336000,61.5463000,-40.3920000,-10.8570000,5.8330000,0.000000,0,0,0
1.700,-0.1148000,-0.1160000,9.6098000,57.7164000,52.5742000,61.7371000,-40.4070000,-10.6990000,6.0190000,0.000000,0,0,0
1.710,-0.1136000,-0.1125000,9.6122000,57.7698000,52.4979000,61.8210000,-40.4560000,-10.8120000,6.1130000,0.000000,0,0,0
1.720,-0.1196000,-0.1077000,9.6098000,57.7240000,52.5208000,61.7676000,-40.5060000,-10.9130000,6.2440000,0.000000,0,0,0
1.730,-0.1232000,-0.0993000,9.6086000,57.6782000,52.5589000,61.5616000,-40.4580000,-10.9730000,6.3130000,0.000000,0,0,0
1.740,-0.1196000,-0.0897000,9.6086000,57.5943000,52.6276000,61.2411000,-40.3480000,-11.0500000,5.7440000,0.000000,0,0,0
1.750,-0.1089000,-0.0909000,9.6122000,57.4951000,52.7496000,60.8292000,-40.2260000,-10.8980000,5.4220000,0.000000,0,0,0
1.760,-0.1053000,-0.1065000,9.6122000,57.4188000,52.9251000,60.3714000,-40.8140000,-11.1360000,5.3330000,0.000000,0,0,0
1.770,-0.1077000,-0.1256000,9.6134000,57.4265000,53.1693000,59.8907000,-40.5890000,-11.1480000,5.5930000,0.000000,0,0,0
1.780,-0.1041000,-0.1412000,9.6194000,57.6859000,53.7338000,59.2041000,-40.5000000,-11.0530000,6.5970000,0.000000,0,0,0
1.790,-0.1005000,-0.1543000,9.6122000,57.9300000,54.1229000,58.5785000,-40.5470000,-10.9830000,6.4710000,0.000000,0,0,0
1.800,-0.1352000,-0.1519000,9.6002000,57.8308000,54.0466000,58.9600000,-40.5360000,-10.9430000,6.4160000,0.000000,0,0,0
1.810,-0.1352000,-0.1424000,9.6038000,57.7927000,53.7186000,59.9442000,-40.5620000,-10.7750000,6.4010000,0.000000,0,0,0
1.820,-0.1232000,-0.1471000,9.6026000,57.8308000,53.4744000,60.6689000,-40.4760000,-10.9910000,6.3610000,0.000000,0,0,0
1.830,-0.1184000,-0.1531000,9.6026000,57.9071000,53.1998000,60.8902000,-40.5120000,-10.7110000,5.8980000,0.000000,0,0,0
1.840,-0.1184000,-0.1471000,9.6086000,58.0139000,52.9861000,60.9589000,-40.1690000,-10.9340000,6.7160000,0.000000,0,0,0
1.850,-0.1208000,-0.1436000,9.6134000,57.9529000,53.0777000,61.1725000,-40.2540000,-10.7960000,6.4980000,0.000000,0,0,0
1.860,-0.1208000,-0.1483000,9.6158000,57.7240000,53.3524000,61.4548000,-40.3880000,-11.2770000,5.6290000,0.000000,0,0,0
1.870,-0.1148000,-0.1567000,9.6194000,57.4493000,53.6575000,61.6760000,-40.5570000,-11.0370000,5.4980000,0.000000,0,0,0
1.880,-0.1125000,-0.1603000,9.6206000,57.3502000,53.8483000,61.7981000,-40.7030000,-11.0110000,5.8480000,0.000000,0,0,0
1.890,-0.1077000,-0.1555000,9.6194000,57.4875000,53.8330000,61.7981000,-40.7470000,-10.8750000,5.6420000,0.000000,0,0,0
1.900,-0.1041000,-0.1424000,9.6146000,57.7393000,53.6957000,61.7218000,-40.5760000,-11.0840000,5.6870000,0.000000,0,0,0
1.910,-0.1101000,-0.1196000,9.6086000,57.9605000,53.4821000,61.6379000,-40.2070000,-10.9220000,5.7850000,0.000000,0,0,0
1.920,-0.1160000,-0.0993000,9.6062000,58.0444000,53.3142000,61.6226000,-40.5460000,-10.5650000,5.4200000,0.000000,0,0,0
1.930,-0.1268000,-0.0921000,9.6050000,58.0139000,53.2761000,61.6531000,-40.6120000,-10.6100000,5.6210000,0.000000,0,0,0
1.940,-0.1388000,-0.0957000,9.6038000,57.9300000,53.3600000,61.6913000,-40.3230000,-10.7290000,4.9230000,0.000000,0,0,0
1.950,-0.1507000,-0.1077000,9.6038000,57.8232000,53.4897000,61.7371000,-40.2330000,-10.8470000,6.3010000,0.000000,0,0,0
1.960,-0.1567000,-0.1196000,9.6038000,57.7011000,53.6041000,61.7523000,-40.4360000,-10.7850000,5.7110000,0.000000,0,0,0
1.970,-0.1543000,-0.1316000,9.6062000,57.5867000,53.5583000,61.6913000,-40.5730000,-10.6280000,6.0300000,0.000000,0,0,0
1.980,-0.1436000,-0.1364000,9.6062000,57.5027000,53.3524000,61.5692000,-40.4730000,-10.9450000,6.6120000,0.000000,0,0,0
1.990,-0.1280000,-0.1340000,9.6074000,57.4799000,53.0624000,61.3632000,-40.3810000,-10.9030000,6.1190000,0.000000,0,0,0
2.000,-0.1089000,-0.1184000,9.6098000,57.5333000,52.6505000,60.9131000,-40.7670000,-11.0680000,6.8270000,0.000000,0,0,0
2.010,-0.1053000,-0.0993000,9.6086000,57.6324000,52.4521000,60.6079000,-40.4470000,-10.9990000,6.3950000,0.000000,0,0,0
2.020,-0.1065000,-0.0778000,9.6050000,57.7698000,52.3224000,60.4172000,-40.5190000,-11.1200000,6.0780000,0.000000,0,0,0
2.030,-0.1065000,-0.0562000,9.6026000,57.8995000,52.2690000,60.3943000,-40.4610000,-11.1340000,6.4640000,0.000000,0,0,0
2.040,-0.1017000,-0.0395000,9.6038000,57.9300000,52.3529000,60.5164000,-40.5270000,-10.7980000,6.3870000,0.000000,0,0,0
2.050,-0.0945000,-0.0443000,9.6062000,57.8842000,52.5360000,60.7147000,-40.4440000,-10.5270000,5.6810000,0.000000,0,0,0
2.060,-0.0981000,-0.0718000,9.6074000,57.7698000,52.6810000,60.9741000,-40.6640000,-10.9430000,6.2140000,0.000000,0,0,0
2.070,-0.1113000,-0.1125000,9.6086000,57.6630000,52.6886000,61.2335000,-40.7150000,-10.8650000,6.1100000,0.000000,0,0,0
2.080,-0.1208000,-0.1495000,9.6122000,57.6477000,52.5436000,61.3937000,-40.5220000,-10.7940000,6.6100000,0.000000,0,0,0
2.090,-0.1316000,-0.1675000,9.6134000,57.6935000,52.3682000,61.3480000,-40.6910000,-10.6040000,6.3220000,0.000000,0,0,0
2.100,-0.1448000,-0.1615000,9.6122000,57.6935000,52.3453000,61.1725000,-40.6640000,-10.6480000,5.9920000,0.000000,0,0,0
2.110,-0.1555000,-0.1388000,9.6086000,57.5867000,52.4597000,61.0352000,-40.5550000,-10.8780000,6.0320000,0.000000,0,0,0
2.120,-0.1627000,-0.1184000,9.6026000,57.4188000,52.5970000,61.0352000,-40.6560000,-10.9920000,5.9160000,0.000000,0,0,0
2.130,-0.1615000,-0.1089000,9.5990000,57.2968000,52.6505000,61.1115000,-40.5470000,-10.9910000,6.2340000,0.000000,0,0,0
2.140,-0.1591000,-0.1089000,9.5954000,57.2586000,52.5208000,61.2106000,-40.5200000,-10.9850000,5.8890000,0.000000,0,0,0
2.150,-0.1543000,-0.1160000,9.5954000,57.3120000,52.1545000,61.3022000,-40.6330000,-10.9480000,6.0680000,0.000000,0,0,0
2.160,-0.1459000,-0.1220000,9.5990000,57.4722000,51.5823000,61.3403000,-40.7020000,-11.0390000,6.4000000,0.000000,0,0,0
2.170,-0.1268000,-0.1256000,9.6038000,57.7011000,50.8652000,61.2793000,-40.8130000,-10.6180000,5.4430000,0.000000,0,0,0
2.180,-0.1017000,-0.1328000,9.6110000,57.9453000,50.2090000,61.0657000,-40.3640000,-10.9790000,5.9620000,0.000000,0,0,0
2.190,-0.0813000,-0.1376000,9.6158000,58.1436000,49.7894000,60.7529000,-40.6200000,-10.8330000,5.6810000,0.000000,0,0,0
2.200,-0.0754000,-0.1400000,9.6182000,58.2047000,49.6674000,60.4706000,-40.4220000,-11.0000000,5.6580000,0.000000,0,0,0
2.210,-0.0790000,-0.1400000,9.6194000,58.1207000,49.8810000,60.3027000,-40.5900000,-10.9470000,6.0560000,0.000000,0,0,0
2.220,-0.0861000,-0.1436000,9.6122000,57.8766000,50.3998000,60.3104000,-40.8440000,-11.1310000,6.0920000,0.000000,0,0,0
2.230,-0.0993000,-0.1567000,9.6014000,57.6172000,50.9262000,60.4935000,-40.5440000,-11.1240000,5.9700000,0.000000,0,0,0
2.240,-0.0969000,-0.1711000,9.5942000,57.5104000,51.2085000,60.7452000,-40.4150000,-10.9230000,6.0230000,0.000000,0,0,0
2.250,-0.0861000,-0.1771000,9.5930000,57.5104000,51.2695000,60.9131000,-40.6310000,-10.7440000,5.5850000,0.000000,0,0,0
2.260,-0.0766000,-0.1759000,9.5978000,57.5333000,51.2619000,60.9818000,-40.4850000,-11.0440000,5.3670000,0.000000,0,0,0
2.270,-0.0598000,-0.1651000,9.6038000,57.5409000,51.3306000,61.0046000,-40.6510000,-10.7000000,5.3250000,0.000000,0,0,0
2.280,-0.0347000,-0.1567000,9.6122000,57.5180000,51.5213000,60.9970000,-40.6030000,-11.2980000,5.6460000,0.000000,0,0,0
2.290,-0.0084000,-0.1459000,9.6206000,57.5485000,51.8112000,60.8597000,-40.6650000,-11.0290000,5.7430000,0.000000,0,0,0
2.300,0.0108000,-0.1328000,9.6265000,57.6553000,52.1927000,60.6079000,-40.7820000,-11.0760000,5.9210000,0.000000,0,0,0
2.310,0.0144000,-0.1172000,9.6253000,57.7774000,52.5970000,60.3104000,-40.4000000,-11.0810000,6.1660000,0.000000,0,0,0
2.320,0.0060000,-0.0969000,9.6194000,57.8842000,52.9327000,60.0433000,-40.7680000,-10.9540000,5.4950000,0.000000,0,0,0
2.330,-0.0132000,-0.0706000,9.6110000,57.9376000,53.1464000,59.8526000,-40.7450000,-10.7650000,5.6950000,0.000000,0,0,0
2.340,-0.0383000,-0.0526000,9.6014000,57.9529000,53.2074000,59.7763000,-40.9840000,-10.6450000,5.8890000,0.000000,0,0,0
2.350,-0.0586000,-0.0479000,9.5930000,57.9605000,53.1158000,59.7992000,-40.9310000,-10.9730000,6.4430000,0.000000,0,0,0
2.360,-0.0682000,-0.0550000,9.5930000,57.9681000,52.9785000,59.8602000,-40.8480000,-10.6320000,6.3790000,0.000000,0,0,0
2.370,-0.0658000,-0.0706000,9.5978000,57.9300000,52.9556000,59.9518000,-40.5500000,-10.9360000,5.5980000,0.000000,0,0,0
2.380,-0.0502000,-0.0897000,9.6050000,57.8384000,53.1006000,59.9823000,-40.6980000,-10.6390000,6.5400000,0.000000,0,0,0
2.390,-0.0311000,-0.1017000,9.6122000,57.6935000,53.4668000,59.8679000,-40.7880000,-10.8440000,6.1400000,0.000000,0,0,0
2.400,-0.0275000,-0.1005000,9.6122000,57.4951000,53.9246000,59.7458000,-40.5960000,-10.6950000,5.8710000,0.000000,0,0,0
2.410,-0.0431000,-0.0957000,9.6062000,57.2662000,54.2374000,59.7839000,-40.7330000,-10.7680000,5.3850000,0.000000,0,0,0
2.420,-0.0634000,-0.1089000,9.5990000,57.1213000,54.3137000,60.0662000,-40.3050000,-10.9550000,6.1680000,0.000000,0,0,0
2.430,-0.0754000,-0.1352000,9.5966000,57.1365000,54.1458000,60.4858000,-40.7460000,-10.7600000,5.4910000,0.000000,0,0,0
2.440,-0.0825000,-0.1579000,9.5966000,57.2510000,53.8788000,60.9283000,-40.6750000,-10.6950000,5.8810000,0.000000,0,0,0
2.450,-0.0849000,-0.1711000,9.6026000,57.3349000,53.6346000,61.2946000,-40.6200000,-10.5030000,5.3900000,0.000000,0,0,0
2.460,-0.0825000,-0.1759000,9.6086000,57.2662000,53.5507000,61.4853000,-40.8830000,-10.9970000,5.9670000,0.000000,0,0,0
2.470,-0.0813000,-0.1663000,9.6110000,57.0145000,53.6957000,61.4853000,-40.6270000,-10.7410000,6.1100000,0.000000,0,0,0
2.480,-0.0981000,-0.1412000,9.6038000,56.5109000,54.1687000,61.2869000,-40.7570000,-11.0010000,6.3080000,0.000000,0,0,0
2.490,-0.1065000,-0.1280000,9.6002000,56.2820000,54.4586000,61.1572000,-40.5390000,-10.8950000,5.3520000,0.000000,0,0,0
2.500,-0.1101000,-0.1232000,9.5966000,56.2515000,54.5349000,61.1115000,-40.3320000,-11.1340000,6.1500000,0.000000,0,0,0
2.510,-0.1077000,-0.1184000,9.5954000,56.4117000,54.3747000,61.0962000,-40.6020000,-10.9450000,6.1950000,0.000000,0,0,0
2.520,-0.0993000,-0.1208000,9.5978000,56.6940000,54.0695000,61.0123000,-40.6730000,-10.8510000,6.1640000,0.000000,0,0,0
2.530,-0.0933000,-0.1268000,9.6002000,57.0068000,53.7872000,60.8368000,-40.6500000,-11.0300000,5.7270000,0.000000,0,0,0
2.540,-0.0945000,-0.1352000,9.6026000,57.2739000,53.4973000,60.6232000,-40.8020000,-10.9740000,6.1010000,0.000000,0,0,0
2.550,-0.1041000,-0.1495000,9.6038000,57.4951000,53.2303000,60.4248000,-40.4170000,-10.9100000,5.9940000,0.000000,0,0,0
2.560,-0.1125000,-0.1699000,9.6038000,57.6706000,52.9938000,60.2722000,-40.5360000,-11.1090000,6.8820000,0.000000,0,0,0
2.570,-0.1113000,-0.1830000,9.6062000,57.8003000,52.7725000,60.1120000,-40.4630000,-11.1290000,5.8130000,0.000000,0,0,0
2.580,-0.0981000,-0.1818000,9.6098000,57.9224000,52.6199000,59.9136000,-40.8200000,-11.0420000,6.6470000,0.000000,0,0,0
2.590,-0.0873000,-0.1711000,9.6098000,57.9758000,52.5818000,59.7458000,-40.7590000,-11.3830000,5.6890000,0.000000,0,0,0
2.600,-0.0813000,-0.1555000,9.6074000,57.9605000,52.6276000,59.6390000,-40.6940000,-11.0160000,5.5490000,0.000000,0,0,0
2.610,-0.0813000,-0.1448000,9.6062000,57.8537000,52.7496000,59.6161000,-40.6290000,-10.7790000,5.5880000,0.000000,0,0,0
2.620,-0.0897000,-0.1400000,9.6038000,57.6935000,52.8870000,59.7076000,-40.6970000,-11.2410000,5.8040000,0.000000,0,0,0
2.630,-0.1005000,-0.1412000,9.6026000,57.5485000,52.8870000,59.8984000,-40.6030000,-10.8090000,5.5800000,0.000000,0,0,0
2.640,-0.1017000,-0.1448000,9.6026000,57.4341000,52.7802000,60.1349000,-40.2710000,-11.0150000,5.4230000,0.000000,0,0,0
2.650,-0.0945000,-0.1471000,9.6026000,57.3883000,52.5894000,60.3333000,-40.5310000,-11.1110000,5.4130000,0.000000,0,0,0
2.660,-0.0813000,-0.1400000,9.6074000,57.4265000,52.3987000,60.3943000,-40.4970000,-11.1410000,6.3310000,0.000000,0,0,0
2.670,-0.0634000,-0.1292000,9.6098000,57.4799000,52.3071000,60.2722000,-40.5930000,-10.7770000,5.9520000,0.000000,0,0,0
2.680,-0.0538000,-0.1160000,9.6098000,57.5027000,52.2537000,60.0510000,-40.5110000,-10.9470000,5.3620000,0.000000,0,0,0
2.690,-0.0467000,-0.1029000,9.6086000,57.4646000,52.2308000,59.8221000,-40.5150000,-10.9800000,5.7470000,0.000000,0,0,0
2.700,-0.0479000,-0.0897000,9.6038000,57.3654000,52.2156000,59.6466000,-40.7790000,-10.8780000,5.5800000,0.000000,0,0,0
2.710,-0.0598000,-0.0861000,9.6002000,57.1899000,52.1927000,59.6237000,-40.5690000,-11.0050000,5.5650000,0.000000,0,0,0
2.720,-0.0766000,-0.0921000,9.5966000,57.0068000,52.1851000,59.7916000,-40.6160000,-10.7940000,5.7200000,0.000000,0,0,0
2.730,-0.0897000,-0.1053000,9.5942000,56.9153000,52.1088000,60.0510000,-40.5880000,-11.0330000,5.4450000,0.000000,0,0,0
2.740,-0.0921000,-0.1220000,9.5942000,56.9687000,51.9562000,60.2951000,-40.6000000,-11.0580000,5.9120000,0.000000,0,0,0
2.750,-0.0802000,-0.1364000,9.5990000,57.1060000,51.7807000,60.5087000,-40.3310000,-10.9460000,4.7260000,0.000000,0,0,0
2.760,-0.0586000,-0.1483000,9.6074000,57.2891000,51.6357000,60.6384000,-40.7810000,-11.0240000,5.6150000,0.000000,0,0,0
2.770,-0.0347000,0.4660000,-0.0006000,56.9992000,52.5360000,59.8450000,-40.7270000,-10.7470000,5.1040000,0.000000,0,0,0
2.780,-0.0108000,-0.1627000,9.6218000,57.6324000,51.8036000,60.4858000,-40.8200000,-11.0060000,5.8630000,0.000000,0,0,0
2.790,0.0012000,-0.1675000,9.6253000,57.7545000,52.0630000,60.4095000,-40.6240000,-10.9450000,5.3210000,0.000000,0,0,0
2.800,0.0060000,-0.1675000,9.6265000,57.8842000,52.3605000,60.4172000,-41.0900000,-10.6590000,5.9400000,0.000000,0,0,0
2.810,0.0012000,-0.1723000,9.6241000,58.0063000,52.6352000,60.4324000,-40.7600000,-10.8300000,5.3260000,0.000000,0,0,0
2.820,-0.0144000,-0.1794000,9.6182000,58.1741000,52.7802000,60.4401000,-40.7780000,-10.6770000,5.8840000,0.000000,0,0,0
2.830,-0.0323000,-0.1782000,9.6134000,58.3878000,52.7802000,60.4019000,-40.5340000,-10.9700000,5.4800000,0.000000,0,0,0
2.840,-0.0490000,-0.1735000,9.6110000,58.5938000,52.7115000,60.2875000,-40.3780000,-10.7770000,5.3900000,0.000000,0,0,0
2.850,-0.0658000,-0.1591000,9.6074000,58.7387000,52.6352000,60.1273000,-40.4450000,-10.9890000,5.8370000,0.000000,0,0,0
2.860,-0.0813000,-0.1412000,9.6014000,58.7769000,52.5818000,59.9747000,-40.6140000,-10.6690000,5.4680000,0.000000,0,0,0
2.870,-0.0909000,-0.1244000,9.5942000,58.6548000,52.5742000,59.9060000,-40.5990000,-10.6700000,5.9080000,0.000000,0,0,0
2.880,-0.0921000,-0.1148000,9.5918000,58.4259000,52.6047000,59.9060000,-40.7440000,-10.9090000,5.9450000,0.000000,0,0,0
2.890,-0.0849000,-0.1125000,9.5918000,58.1970000,52.6276000,59.9670000,-40.7440000,-10.9150000,6.4430000,0.000000,0,0,0
2.900,-0.0730000,-0.1125000,9.5918000,58.0444000,52.5818000,60.0739000,-41.1200000,-10.9920000,6.1490000,0.000000,0,0,0
2.910,-0.0598000,-0.1136000,9.5930000,58.0063000,52.4597000,60.1730000,-40.7510000,-11.0240000,6.2020000,0.000000,0,0,0
2.920,-0.0502000,-0.1160000,9.5966000,58.0673000,52.2614000,60.2188000,-40.7110000,-10.7670000,6.0290000,0.000000,0,0,0
2.930,-0.0419000,-0.1160000,9.5990000,58.1436000,52.0477000,60.2112000,-40.5320000,-10.5800000,6.0090000,0.000000,0,0,0
2.940,-0.0371000,-0.1196000,9.6002000,58.1970000,51.8951000,60.1501000,-40.6830000,-10.9550000,6.2920000,0.000000,0,0,0
2.950,-0.0359000,-0.1208000,9.6038000,58.1970000,51.8799000,60.0739000,-40.8970000,-10.7230000,6.3680000,0.000000,0,0,0
2.960,-0.0359000,-0.1220000,9.6074000,58.0063000,52.1545000,60.0128000,-40.6910000,-11.0350000,6.0720000,0.000000,0,0,0
2.970,-0.0347000,-0.1256000,9.6062000,57.8537000,52.3911000,60.0281000,-40.7790000,-10.9280000,6.1640000,0.000000,0,0,0
2.980,-0.0347000,-0.1280000,9.6062000,57.7850000,52.5284000,60.0739000,-40.9010000,-10.8930000,5.5300000,0.000000,0,0,0
2.990,-0.0347000,-0.1268000,9.6050000,57.8079000,52.5436000,60.1349000,-40.7400000,-10.7310000,5.3630000,0.000000,0,0,0
3.000,-0.0311000,-0.1208000,9.6038000,57.8766000,52.4826000,60.1883000,-40.5640000,-11.1220000,5.5730000,0.000000,0,0,0
3.010,-0.0251000,-0.1125000,9.6038000,57.9529000,52.3682000,60.1807000,-40.8280000,-10.9200000,5.7970000,0.000000,0,0,0
3.020,-0.0215000,-0.1065000,9.6026000,58.0215000,52.2385000,60.1425000,-40.9870000,-11.0010000,5.4010000,0.000000,0,0,0
3.030,-0.0263000,-0.1041000,9.6014000,58.0597000,52.1317000,60.1196000,-40.7630000,-10.8830000,4.9330000,0.000000,0,0,0
3.040,-0.0359000,-0.1065000,9.5990000,58.0521000,52.0630000,60.1349000,-40.9830000,-11.1270000,5.3970000,0.000000,0,0,0
3.050,-0.0455000,-0.1160000,9.5990000,58.0063000,52.0325000,60.2188000,-40.7220000,-10.7490000,5.3100000,0.000000,0,0,0
3.060,-0.0502000,-0.1280000,9.5990000,57.9453000,52.0096000,60.3333000,-40.7920000,-11.0070000,5.5350000,0.000000,0,0,0
3.070,-0.0455000,-0.1340000,9.6002000,57.9071000,52.0020000,60.4248000,-40.8200000,-11.0410000,5.0660000,0.000000,0,0,0
3.080,-0.0299000,-0.1352000,9.6014000,57.9147000,52.0248000,60.4553000,-40.8870000,-11.0510000,5.8510000,0.000000,0,0,0
3.090,-0.0096000,-0.1316000,9.6062000,57.9681000,52.1088000,60.4324000,-40.9780000,-10.6180000,5.4570000,0.000000,0,0,0
3.100,0.0072000,-0.1304000,9.6098000,58.0368000,52.2614000,60.3790000,-40.6950000,-10.5270000,5.1280000,0.000000,0,0,0
3.110,0.0132000,-0.1352000,9.6110000,58.1055000,52.5055000,60.3104000,-40.8620000,-10.9400000,6.0450000,0.000000,0,0,0
3.120,0.0024000,-0.1448000,9.6110000,58.1970000,52.7878000,60.3256000,-40.6530000,-10.5290000,6.0520000,0.000000,0,0,0
3.130,-0.0144000,-0.1519000,9.6074000,58.2657000,53.0548000,60.4324000,-40.6640000,-10.6480000,5.4280000,0.000000,0,0,0
3.140,-0.0347000,-0.1483000,9.6014000,58.2428000,53.2761000,60.6003000,-40.5050000,-10.8840000,5.7870000,0.000000,0,0,0
3.150,-0.0526000,-0.1304000,9.5930000,58.0902000,53.4134000,60.7910000,-40.8260000,-10.8320000,5.2720000,0.000000,0,0,0
3.160,-0.0586000,-0.1017000,9.5847000,57.8690000,53.4134000,60.9741000,-40.7940000,-10.9140000,5.9710000,0.000000,0,0,0
3.170,-0.0538000,-0.0706000,9.5811000,57.6096000,53.2761000,61.0886000,-40.6740000,-11.0830000,5.5670000,0.000000,0,0,0
3.180,-0.0383000,-0.0490000,9.5823000,57.4112000,53.0319000,61.1267000,-40.7330000,-10.8970000,5.9810000,0.000000,0,0,0
3.190,-0.0167000,-0.0455000,9.5895000,57.3425000,52.8030000,61.1115000,-40.6270000,-10.7330000,5.4420000,0.000000,0,0,0
3.200,0.0096000,-0.0562000,9.5990000,57.3654000,52.6962000,61.0275000,-40.6810000,-10.5710000,4.9380000,0.000000,0,0,0
3.210,0.0299000,-0.0730000,9.6074000,57.4341000,52.7191000,60.8444000,-40.9950000,-10.6790000,6.3310000,0.000000,0,0,0
3.220,0.0335000,-0.0921000,9.6110000,57.4951000,52.8336000,60.5698000,-40.6470000,-10.6450000,5.3490000,0.000000,0,0,0
3.230,0.0179000,-0.1125000,9.6098000,57.5485000,52.9785000,60.3256000,-40.8190000,-10.6950000,5.2220000,0.000000,0,0,0
3.240,-0.0060000,-0.1292000,9.6062000,57.5790000,53.0930000,60.1807000,-40.4810000,-10.5000000,5.8930000,0.000000,0,0,0
3.250,-0.0347000,-0.1376000,9.6014000,57.5790000,53.1616000,60.1654000,-40.5560000,-10.6540000,6.4410000,0.000000,0,0,0
3.260,-0.0562000,-0.1448000,9.5966000,57.5790000,53.1464000,60.2646000,-40.6300000,-10.6360000,6.0790000,0.000000,0,0,0
3.270,-0.0658000,-0.1495000,9.5930000,57.5790000,53.0624000,60.4324000,-40.7820000,-10.6510000,5.8380000,0.000000,0,0,0
3.280,-0.0622000,-0.1507000,9.5930000,57.5943000,52.9556000,60.6003000,-40.6750000,-10.9040000,5.8460000,0.000000,0,0,0
3.290,-0.0443000,-0.1483000,9.5966000,57.6096000,52.8641000,60.7147000,-40.5460000,-10.5010000,5.9560000,0.000000,0,0,0
3.300,-0.0191000,-0.1448000,9.6026000,57.6096000,52.8488000,60.7758000,-40.5460000,-10.3570000,5.5010000,0.000000,0,0,0
3.310,0.0012000,-0.1400000,9.6074000,57.6096000,52.8946000,60.7910000,-40.3380000,-10.5220000,5.4160000,0.000000,0,0,0
3.320,0.0144000,-0.1376000,9.6098000,57.6324000,52.9556000,60.7834000,-40.4680000,-10.5440000,5.6530000,0.000000,0,0,0
3.330,0.0156000,-0.1340000,9.6110000,57.6935000,52.9861000,60.7376000,-40.8450000,-10.5410000,6.4690000,0.000000,0,0,0
3.340,0.0108000,-0.1244000,9.6098000,57.7621000,53.0090000,60.6461000,-40.4970000,-10.7740000,5.3370000,0.000000,0,0,0
3.350,0.0000000,-0.1113000,9.6062000,57.8003000,53.0548000,60.5164000,-40.7490000,-10.9920000,5.2000000,0.000000,0,0,0
3.360,-0.0132000,-0.1005000,9.6026000,57.8079000,53.1311000,60.3943000,-40.6590000,-10.7500000,5.1800000,0.000000,0,0,0
3.370,-0.0227000,-0.0957000,9.5990000,57.7774000,53.2074000,60.3485000,-40.7960000,-10.8810000,5.3730000,0.000000,0,0,0
3.380,-0.0263000,-0.0969000,9.5990000,57.7316000,53.2837000,60.3714000,-40.7700000,-10.5810000,5.7240000,0.000000,0,0,0
3.390,-0.0239000,-0.0993000,9.6002000,57.6859000,53.3295000,60.4095000,-40.5820000,-10.7730000,5.1370000,0.000000,0,0,0
3.400,-0.0156000,-0.0969000,9.6002000,57.6782000,53.3447000,60.4401000,-40.7530000,-10.7810000,4.9590000,0.000000,0,0,0
3.410,-0.0096000,-0.0957000,9.6014000,57.6859000,53.3218000,60.4324000,-40.6330000,-10.6950000,5.4270000,0.000000,0,0,0
3.420,-0.0084000,-0.0993000,9.6038000,57.7393000,53.2684000,60.3714000,-40.6230000,-10.7430000,5.1320000,0.000000,0,0,0
3.430,-0.0048000,-0.1065000,9.6050000,57.8461000,53.2074000,60.2417000,-40.3670000,-10.6580000,5.6330000,0.000000,0,0,0
3.440,-0.0036000,-0.1125000,9.6050000,57.9529000,53.1769000,60.0510000,-40.7290000,-10.7350000,5.5280000,0.000000,0,0,0
3.450,-0.0036000,-0.1208000,9.6062000,58.0292000,53.2150000,59.8450000,-40.6180000,-10.7310000,5.5610000,0.000000,0,0,0
3.460,-0.0072000,-0.1232000,9.6050000,58.0521000,53.3218000,59.6695000,-40.9430000,-10.7990000,5.9610000,0.000000,0,0,0
3.470,-0.0191000,-0.1184000,9.6026000,58.0063000,53.4592000,59.5856000,-40.9020000,-10.7290000,5.3110000,0.000000,0,0,0
3.480,-0.0323000,-0.1160000,9.6014000,57.9147000,53.6041000,59.6542000,-40.8780000,-10.8420000,5.4920000,0.000000,0,0,0
3.490,-0.0443000,-0.1136000,9.5978000,57.8766000,53.6880000,59.8755000,-40.7230000,-10.9790000,5.0680000,0.000000,0,0,0
3.500,-0.0455000,-0.1077000,9.5942000,57.9376000,53.5736000,60.0433000,-40.8050000,-10.8750000,5.2420000,0.000000,0,0,0
3.510,-0.0383000,-0.1005000,9.5942000,58.0063000,53.3676000,60.1349000,-40.8160000,-10.7640000,4.7410000,0.000000,0,0,0
3.520,-0.0299000,-0.1005000,9.5966000,58.0444000,53.1769000,60.1273000,-40.9790000,-10.8990000,5.5580000,0.000000,0,0,0
3.530,-0.0227000,-0.1029000,9.5990000,58.0139000,53.0930000,60.0739000,-40.9820000,-10.8740000,5.7180000,0.000000,0,0,0
3.540,-0.0203000,-0.1077000,9.6014000,57.9071000,53.1235000,60.0281000,-40.9300000,-10.8790000,5.4490000,0.000000,0,0,0
3.550,-0.0263000,-0.1148000,9.6014000,57.7774000,53.1921000,60.0052000,-40.7940000,-10.9440000,5.4020000,0.000000,0,0,0
3.560,-0.0371000,-0.1220000,9.5990000,57.6782000,53.2303000,60.0128000,-40.9090000,-10.5340000,5.1760000,0.000000,0,0,0
3.570,-0.0479000,-0.1244000,9.5954000,57.6706000,53.1693000,60.0433000,-40.6870000,-10.4190000,6.1370000,0.000000,0,0,0
3.580,-0.0514000,-0.1136000,9.5942000,57.7469000,53.0014000,60.0891000,-40.6600000,-10.6720000,5.3820000,0.000000,0,0,0
3.590,-0.0502000,-0.0969000,9.5918000,57.8156000,52.7954000,60.1120000,-40.7560000,-10.7970000,5.0020000,0.000000,0,0,0
3.600,-0.0455000,-0.0813000,9.5918000,57.8461000,52.6047000,60.0662000,-40.8760000,-10.7600000,5.9140000,0.000000,0,0,0
3.610,-0.0383000,-0.0754000,9.5918000,57.8079000,52.4902000,59.9976000,-40.3750000,-10.8540000,5.4450000,0.000000,0,0,0
3.620,-0.0359000,-0.0813000,9.5966000,57.7393000,52.4521000,59.9747000,-40.8360000,-10.9930000,5.5340000,0.000000,0,0,0
3.630,-0.0299000,-0.0969000,9.6038000,57.6859000,52.4979000,59.9899000,-40.6040000,-10.8320000,5.1450000,0.000000,0,0,0
3.640,-0.0203000,-0.1101000,9.6074000,57.6324000,52.6276000,60.0052000,-40.7940000,-10.9720000,4.8500000,0.000000,0,0,0
3.650,-0.0120000,-0.1172000,9.6098000,57.5943000,52.8259000,59.9899000,-40.6460000,-10.8590000,5.8740000,0.000000,0,0,0
3.660,-0.0060000,-0.1148000,9.6086000,57.6172000,52.9861000,59.9747000,-40.9550000,-10.8690000,5.9710000,0.000000,0,0,0
3.670,-0.0012000,-0.1065000,9.6062000,57.6859000,53.0930000,59.9518000,-40.4550000,-10.8180000,5.9770000,0.000000,0,0,0
3.680,0.0000000,-0.0981000,9.6026000,57.7621000,53.1235000,59.9442000,-40.6610000,-11.0680000,5.8040000,0.000000,0,0,0
3.690,-0.0048000,-0.0957000,9.6002000,57.8156000,53.1082000,59.9670000,-40.6670000,-10.9880000,6.0450000,0.000000,0,0,0
3.700,-0.0132000,-0.0981000,9.5978000,57.8156000,53.0853000,60.0586000,-40.5550000,-10.8120000,5.3930000,0.000000,0,0,0
3.710,-0.0275000,-0.1065000,9.5954000,57.7393000,53.0853000,60.2646000,-40.4570000,-10.8290000,5.7220000,0.000000,0,0,0
3.720,-0.0407000,-0.1220000,9.5954000,57.6172000,53.0930000,60.5698000,-40.4980000,-10.8410000,5.4160000,0.000000,0,0,0
3.730,-0.0526000,-0.1364000,9.5966000,57.5027000,53.0624000,60.9283000,-40.7020000,-10.5930000,5.6650000,0.000000,0,0,0
3.740,-0.0586000,-0.1388000,9.5954000,57.4341000,52.9785000,61.2717000,-40.5010000,-11.1970000,4.7940000,0.000000,0,0,0
3.750,-0.0562000,-0.1292000,9.5954000,57.3959000,52.8641000,61.5005000,-40.5830000,-10.9680000,5.2340000,0.000000,0,0,0
3.760,-0.0443000,-0.1136000,9.5978000,57.4036000,52.7725000,61.5768000,-40.4600000,-10.7660000,5.3350000,0.000000,0,0,0
3.770,-0.0263000,-0.0957000,9.6002000,57.4341000,52.7267000,61.5387000,-40.6260000,-10.8660000,5.0240000,0.000000,0,0,0
3.780,-0.0084000,-0.0825000,9.6014000,57.4646000,52.7573000,61.4090000,-40.5380000,-10.7950000,5.4870000,0.000000,0,0,0
3.790,0.0024000,-0.0778000,9.6026000,57.4722000,52.8488000,61.2564000,-40.5670000,-10.7370000,5.8250000,0.000000,0,0,0
3.800,0.0060000,-0.0825000,9.6026000,57.4799000,52.9556000,61.0962000,-40.5150000,-10.7560000,5.5360000,0.000000,0,0,0
3.810,0.0000000,-0.0909000,9.6026000,57.5256000,53.0396000,60.9665000,-40.4690000,-10.7260000,5.4770000,0.000000,0,0,0
3.820,-0.0108000,-0.0945000,9.6014000,57.5867000,53.0701000,60.8521000,-40.4690000,-10.6820000,5.7150000,0.000000,0,0,0
3.830,-0.0227000,-0.0957000,9.5978000,57.6630000,53.0319000,60.7224000,-40.4680000,-10.5000000,5.4790000,0.000000,0,0,0
3.840,-0.0311000,-0.0909000,9.5954000,57.7545000,52.9327000,60.5698000,-40.4740000,-10.9890000,6.3200000,0.000000,0,0,0
3.850,-0.0311000,-0.0873000,9.5942000,57.8308000,52.8107000,60.4324000,-40.4960000,-10.6940000,5.8670000,0.000000,0,0,0
3.860,-0.0263000,-0.0873000,9.5954000,57.8384000,52.7344000,60.3256000,-40.8290000,-10.6130000,5.9790000,0.000000,0,0,0
3.870,-0.0156000,-0.0873000,9.5966000,57.7698000,52.7115000,60.2722000,-40.3750000,-10.8250000,5.9430000,0.000000,0,0,0
3.880,-0.0072000,-0.0885000,9.5966000,57.6630000,52.6962000,60.2493000,-40.4410000,-10.9630000,6.1060000,0.000000,0,0,0
3.890,-0.0048000,-0.0897000,9.5954000,57.5562000,52.6810000,60.2646000,-40.6370000,-10.4200000,5.3150000,0.000000,0,0,0
3.900,-0.0108000,-0.0933000,9.5930000,57.4875000,52.5970000,60.2951000,-40.6760000,-10.6470000,5.7640000,0.000000,0,0,0
3.910,-0.0227000,-0.0993000,9.5930000,57.4722000,52.4597000,60.3409000,-40.7920000,-10.9340000,5.2700000,0.000000,0,0,0
3.920,-0.0323000,-0.1041000,9.5942000,57.5027000,52.2995000,60.4248000,-40.6590000,-10.6710000,5.9950000,0.000000,0,0,0
3.930,-0.0311000,-0.1041000,9.5978000,57.5409000,52.2156000,60.5087000,-40.5070000,-10.6110000,6.0150000,0.000000,0,0,0
3.940,-0.0203000,-0.1065000,9.6014000,57.5562000,52.2614000,60.5469000,-40.4590000,-10.7940000,4.8110000,0.000000,0,0,0
3.950,-0.0060000,-0.1148000,9.6074000,57.5485000,52.3834000,60.5392000,-40.7650000,-10.8630000,5.5500000,0.000000,0,0,0
3.960,0.0096000,-0.1256000,9.6122000,57.5485000,52.5436000,60.4935000,-40.6940000,-10.6710000,5.4610000,0.000000,0,0,0
3.970,0.0227000,-0.1340000,9.6146000,57.6019000,52.6810000,60.4019000,-40.8260000,-10.9460000,5.4640000,0.000000,0,0,0
3.980,0.0287000,-0.1364000,9.6134000,57.6859000,52.8336000,60.2493000,-40.7570000,-10.8700000,5.3200000,0.000000,0,0,0
3.990,0.0215000,-0.1292000,9.6110000,57.7621000,52.9938000,60.0739000,-40.6250000,-10.6940000,5.3260000,0.000000,0,0,0
4.000,0.0048000,-0.1148000,9.6050000,57.8232000,53.1311000,59.8679000,-40.8460000,-10.5440000,5.3520000,0.000000,0,0,0
4.010,-0.0251000,-0.0993000,9.5942000,57.8461000,53.1998000,59.7076000,-40.6880000,-10.3760000,5.7800000,0.000000,0,0,0
4.020,-0.0550000,-0.0921000,9.5847000,57.8308000,53.1387000,59.6619000,-40.6070000,-10.5690000,4.6040000,0.000000,0,0,0
4.030,-0.0718000,-0.0873000,9.5787000,57.7774000,52.8488000,59.7763000,-40.5760000,-10.9110000,5.2230000,0.000000,0,0,0
4.040,-0.0634000,-0.0909000,9.5811000,57.6859000,52.6581000,59.9365000,-40.5630000,-10.7170000,5.7100000,0.000000,0,0,0
4.050,-0.0502000,-0.1005000,9.5859000,57.5867000,52.5284000,60.1273000,-40.3530000,-10.6720000,5.5110000,0.000000,0,0,0
4.060,-0.0263000,-0.1077000,9.5918000,57.5027000,52.4750000,60.2646000,-40.5060000,-10.9420000,5.8560000,0.000000,0,0,0
4.070,-0.0036000,-0.1125000,9.5990000,57.4570000,52.4750000,60.3027000,-40.7840000,-10.9980000,5.4900000,0.000000,0,0,0
4.080,0.0108000,-0.1136000,9.6026000,57.4570000,52.4673000,60.2493000,-40.3880000,-10.7290000,5.7900000,0.000000,0,0,0
4.090,0.0132000,-0.1089000,9.6026000,57.4951000,52.4216000,60.1654000,-40.3690000,-10.7960000,5.5580000,0.000000,0,0,0
4.100,0.0060000,-0.1089000,9.6002000,57.5485000,52.3529000,60.1044000,-40.4910000,-10.5590000,5.0750000,0.000000,0,0,0
4.110,-0.0024000,-0.1136000,9.6002000,57.6019000,52.3071000,60.1273000,-40.7070000,-10.8850000,5.5400000,0.000000,0,0,0
4.120,-0.0108000,-0.1184000,9.5990000,57.6096000,52.3071000,60.2036000,-40.4480000,-10.6530000,5.6040000,0.000000,0,0,0
4.130,-0.0167000,-0.1196000,9.5966000,57.5867000,52.3071000,60.3180000,-40.5570000,-10.2900000,5.7220000,0.000000,0,0,0
4.140,-0.0191000,-0.1172000,9.5942000,57.5562000,52.2842000,60.4477000,-40.7370000,-10.6930000,6.0870000,0.000000,0,0,0
4.150,-0.0120000,-0.1125000,9.5954000,57.5638000,52.2461000,60.5240000,-40.3440000,-10.3260000,5.5570000,0.000000,0,0,0
4.160,-0.0036000,-0.1017000,9.5966000,57.6248000,52.2003000,60.5087000,-40.5260000,-10.4590000,5.2360000,0.000000,0,0,0
4.170,0.0024000,-0.0861000,9.5942000,57.6935000,52.1393000,60.4553000,-40.5050000,-10.8470000,4.7930000,0.000000,0,0,0
4.180,0.0036000,-0.0754000,9.5906000,57.7545000,52.0248000,60.4553000,-40.4880000,-10.8950000,5.6580000,0.000000,0,0,0
4.190,0.0072000,-0.0766000,9.5918000,57.7850000,51.9180000,60.5316000,-40.4500000,-10.8140000,5.0080000,0.000000,0,0,0
4.200,0.0132000,-0.0885000,9.5966000,57.7927000,51.9638000,60.6384000,-40.4540000,-10.6520000,5.9570000,0.000000,0,0,0
4.210,0.0156000,-0.1017000,9.6002000,57.7393000,52.1393000,60.7758000,-40.4910000,-10.5670000,5.6810000,0.000000,0,0,0
4.220,0.0167000,-0.1172000,9.6026000,57.6477000,52.3605000,60.9207000,-40.4390000,-10.8460000,5.4900000,0.000000,0,0,0
4.230,0.0156000,-0.1292000,9.6014000,57.5867000,52.5436000,61.0504000,-40.5800000,-10.8510000,5.7350000,0.000000,0,0,0
4.240,0.0108000,-0.1304000,9.5966000,57.5714000,52.6047000,61.1496000,-40.5840000,-10.7970000,5.4530000,0.000000,0,0,0
4.250,0.0084000,-0.1220000,9.5918000,57.6172000,52.5436000,61.2030000,-40.4010000,-10.6350000,4.4350000,0.000000,0,0,0
4.260,0.0060000,-0.1065000,9.5883000,57.6706000,52.3911000,61.1954000,-40.6420000,-10.9560000,5.3950000,0.000000,0,0,0
4.270,0.0072000,-0.0921000,9.5859000,57.6935000,52.2461000,61.1343000,-40.5190000,-10.5520000,5.7860000,0.000000,0,0,0
4.280,0.0144000,-0.0909000,9.5906000,57.6782000,52.1851000,61.0580000,-40.8360000,-10.6820000,5.4560000,0.000000,0,0,0
4.290,0.0251000,-0.0969000,9.5966000,57.6324000,52.2003000,60.9970000,-40.6220000,-10.6200000,5.7890000,0.000000,0,0,0
4.300,0.0383000,-0.1065000,9.6014000,57.5790000,52.2690000,60.9512000,-40.5840000,-10.7460000,5.3550000,0.000000,0,0,0
4.310,0.0479000,-0.1208000,9.6050000,57.5867000,52.3682000,60.9207000,-40.3850000,-11.0280000,5.2470000,0.000000,0,0,0
4.320,0.0443000,-0.1280000,9.6038000,57.6706000,52.4673000,60.8826000,-40.8280000,-10.6400000,4.8020000,0.000000,0,0,0
4.330,0.0311000,-0.1304000,9.6014000,57.7621000,52.5436000,60.8368000,-40.8130000,-10.8980000,5.5980000,0.000000,0,0,0
4.340,0.0144000,-0.1244000,9.5954000,57.8461000,52.5436000,60.7986000,-40.6910000,-11.0560000,5.2620000,0.000000,0,0,0
4.350,-0.0012000,-0.1136000,9.5895000,57.9071000,52.4292000,60.8063000,-40.5240000,-10.7510000,5.3090000,0.000000,0,0,0
4.360,-0.0012000,-0.1017000,9.5859000,57.9529000,52.2156000,60.8521000,-40.4970000,-11.0400000,5.3710000,0.000000,0,0,0
4.370,0.0108000,-0.0885000,9.5859000,57.9834000,51.9714000,60.8749000,-40.6210000,-10.6460000,5.1580000,0.000000,0,0,0
4.380,0.0335000,-0.0813000,9.5906000,57.9758000,51.8188000,60.8978000,-40.8580000,-10.8500000,5.5380000,0.000000,0,0,0
4.390,0.0526000,-0.0825000,9.5942000,57.9453000,51.7807000,60.9207000,-40.4710000,-10.8780000,5.2980000,0.000000,0,0,0
4.400,0.0658000,-0.0885000,9.5990000,57.9071000,51.8570000,60.9283000,-40.8130000,-10.8900000,5.5560000,0.000000,0,0,0
4.410,0.0670000,-0.0969000,9.6002000,57.8918000,52.0096000,60.9283000,-40.6530000,-10.4270000,6.1380000,0.000000,0,0,0
4.420,0.0574000,-0.1053000,9.5990000,57.8995000,52.1317000,60.9436000,-40.4810000,-10.5710000,5.6570000,0.000000,0,0,0
4.430,0.0395000,-0.1101000,9.5954000,57.9453000,52.1698000,60.9741000,-40.3790000,-10.8490000,5.4580000,0.000000,0,0,0
4.440,0.0227000,-0.1101000,9.5906000,58.0215000,52.0935000,61.0199000,-40.6170000,-10.8810000,5.2010000,0.000000,0,0,0
4.450,0.0144000,-0.1101000,9.5871000,58.1284000,51.9104000,61.0428000,-40.4320000,-10.7080000,5.2020000,0.000000,0,0,0
4.460,0.0203000,-0.1077000,9.5883000,58.2352000,51.7273000,60.9894000,-39.9690000,-10.7530000,5.0750000,0.000000,0,0,0
4.470,0.0383000,-0.0993000,9.5930000,58.2809000,51.6663000,60.8521000,-40.6050000,-10.8180000,5.8050000,0.000000,0,0,0
4.480,0.0622000,-0.0981000,9.6002000,58.2428000,51.7654000,60.6689000,-40.6830000,-10.7590000,5.7710000,0.000000,0,0,0
4.490,0.0849000,-0.1005000,9.6050000,58.1970000,51.9867000,60.4401000,-40.3710000,-10.7470000,6.3230000,0.000000,0,0,0
4.500,0.0921000,-0.1041000,9.6086000,58.2123000,52.2690000,60.1807000,-40.4930000,-11.0660000,5.7300000,0.000000,0,0,0
4.510,0.0802000,-0.1053000,9.6122000,58.3344000,52.5284000,59.9670000,-40.5520000,-11.1100000,6.1190000,0.000000,0,0,0
4.520,0.0598000,-0.1029000,9.6074000,58.6090000,52.6886000,59.8297000,-40.7060000,-10.8180000,6.5020000,0.000000,0,0,0
4.530,0.0347000,-0.1005000,9.5942000,58.9218000,52.6047000,59.7687000,-40.6570000,-10.9290000,6.1760000,0.000000,0,0,0
4.540,0.0203000,-0.0909000,9.5811000,59.1660000,52.3148000,59.8068000,-40.7580000,-10.7340000,6.1090000,0.000000,0,0,0
4.550,0.0239000,-0.0754000,9.5715000,59.2499000,51.9180000,59.8679000,-40.9020000,-10.9730000,6.3250000,0.000000,0,0,0
4.560,0.0371000,-0.0598000,9.5703000,59.1431000,51.5671000,59.8984000,-40.7480000,-11.0120000,6.4180000,0.000000,0,0,0
4.570,0.0574000,-0.0479000,9.5739000,58.8913000,51.3916000,59.8907000,-40.5260000,-10.8680000,5.8960000,0.000000,0,0,0
4.580,0.0742000,-0.0443000,9.5775000,58.5175000,51.4603000,59.8831000,-40.5320000,-10.8300000,5.8240000,0.000000,0,0,0
4.590,0.0873000,-0.0670000,9.5859000,57.9529000,51.7731000,59.9670000,-40.3630000,-11.0210000,5.7700000,0.000000,0,0,0
4.600,0.0969000,-0.0825000,9.5918000,57.7774000,51.9485000,60.0739000,-40.5900000,-11.0100000,5.6610000,0.000000,0,0,0
4.610,0.1017000,-0.0861000,9.5942000,57.7545000,52.0706000,60.1501000,-40.5790000,-10.5910000,5.7200000,0.000000,0,0,0
4.620,0.1041000,-0.0813000,9.5966000,57.8232000,52.2003000,60.1883000,-40.7840000,-10.8540000,5.7290000,0.000000,0,0,0
4.630,0.1065000,-0.0682000,9.5978000,57.9147000,52.3605000,60.1730000,-40.4520000,-11.0100000,5.5080000,0.000000,0,0,0
4.640,0.1089000,-0.0514000,9.5954000,57.9224000,52.5589000,60.1425000,-40.6770000,-10.7970000,5.8270000,0.000000,0,0,0
4.650,0.1065000,-0.0455000,9.5918000,57.8537000,52.7344000,60.1349000,-40.5800000,-10.7930000,5.8850000,0.000000,0,0,0
4.660,0.0981000,-0.0502000,9.5859000,57.8079000,52.7725000,60.1654000,-40.6000000,-10.7130000,6.0320000,0.000000,0,0,0
4.670,0.0825000,-0.0598000,9.5811000,57.8232000,52.6962000,60.2493000,-40.8680000,-10.7660000,5.9510000,0.000000,0,0,0
4.680,0.0646000,-0.0706000,9.5799000,57.8690000,52.5818000,60.3409000,-40.6350000,-10.8190000,5.7670000,0.000000,0,0,0
4.690,0.0514000,-0.0825000,9.5799000,57.8918000,52.5131000,60.4401000,-40.4830000,-10.8040000,5.3560000,0.000000,0,0,0
4.700,0.0467000,-0.0945000,9.5799000,57.8537000,52.5055000,60.4935000,-40.7350000,-10.7680000,5.5920000,0.000000,0,0,0
4.710,0.0479000,-0.1029000,9.5811000,57.7698000,52.5436000,60.4630000,-40.6130000,-10.8830000,5.1280000,0.000000,0,0,0
4.720,0.0574000,-0.1053000,9.5847000,57.6859000,52.6123000,60.3714000,-40.8710000,-11.0550000,5.6690000,0.000000,0,0,0
4.730,0.0706000,-0.0969000,9.5859000,57.6096000,52.6657000,60.2798000,-40.6110000,-10.7160000,5.2350000,0.000000,0,0,0
4.740,0.0825000,-0.0813000,9.5859000,57.5562000,52.7039000,60.2188000,-40.5890000,-10.8890000,5.7210000,0.000000,0,0,0
4.750,0.0861000,-0.0658000,9.5835000,57.5256000,52.7191000,60.2188000,-40.4880000,-10.9590000,4.7950000,0.000000,0,0,0
4.760,0.0825000,-0.0538000,9.5799000,57.5180000,52.7344000,60.2646000,-40.6600000,-11.2170000,4.9030000,0.000000,0,0,0
4.770,0.0790000,-0.0479000,9.5799000,57.4951000,52.7573000,60.3333000,-40.4320000,-11.0830000,4.8360000,0.000000,0,0,0
4.780,0.0802000,-0.0490000,9.5811000,57.4722000,52.8259000,60.3714000,-40.4070000,-11.0790000,5.5240000,0.000000,0,0,0
4.790,0.0885000,-0.0538000,9.5847000,57.4036000,52.9785000,60.3561000,-40.6310000,-10.7870000,5.3500000,0.000000,0,0,0
4.800,0.0981000,-0.0610000,9.5895000,57.3349000,53.1464000,60.2570000,-40.5640000,-10.9200000,5.4030000,0.000000,0,0,0
4.810,0.1077000,-0.0646000,9.5930000,57.2968000,53.2913000,60.1044000,-40.9550000,-11.2200000,5.7390000,0.000000,0,0,0
4.820,0.1136000,-0.0646000,9.5918000,57.2739000,53.4134000,59.9289000,-40.4010000,-11.1950000,6.1630000,0.000000,0,0,0
4.830,0.1077000,-0.0670000,9.5895000,57.2357000,53.5278000,59.7839000,-40.0550000,-10.9560000,5.5190000,0.000000,0,0,0
4.840,0.0945000,-0.0670000,9.5859000,57.2052000,53.5812000,59.7000000,-40.4120000,-11.0970000,5.9110000,0.000000,0,0,0
4.850,0.0754000,-0.0682000,9.5811000,57.1671000,53.5507000,59.7000000,-40.7730000,-10.9150000,5.8940000,0.000000,0,0,0
4.860,0.0550000,-0.0742000,9.5751000,57.1594000,53.3829000,59.7763000,-40.7810000,-10.9370000,5.8690000,0.000000,0,0,0
4.870,0.0407000,-0.0790000,9.5715000,57.1747000,53.1082000,59.9136000,-40.3720000,-10.9000000,5.6130000,0.000000,0,0,0
4.880,0.0359000,-0.0766000,9.5715000,57.2128000,52.7802000,60.0815000,-40.6960000,-10.8730000,5.1150000,0.000000,0,0,0
4.890,0.0479000,-0.0706000,9.5763000,57.2357000,52.5208000,60.2036000,-40.9950000,-10.9430000,5.6680000,0.000000,0,0,0
4.900,0.0670000,-0.0694000,9.5799000,57.2052000,52.3453000,60.2570000,-40.7490000,-11.3070000,5.7430000,0.000000,0,0,0
4.910,0.0909000,-0.0754000,9.5835000,57.1823000,52.2385000,60.2341000,-40.6100000,-10.9170000,5.8710000,0.000000,0,0,0
4.920,0.1136000,-0.0873000,9.5883000,57.2281000,52.1698000,60.1578000,-40.6580000,-10.8850000,5.9780000,0.000000,0,0,0
4.930,0.1268000,-0.0957000,9.5942000,57.3502000,52.1393000,60.0433000,-40.5570000,-11.0420000,6.0380000,0.000000,0,0,0
4.940,0.1352000,-0.1017000,9.5990000,57.4799000,52.2461000,59.9518000,-40.7020000,-11.1880000,5.7860000,0.000000,0,0,0
4.950,0.1340000,-0.1065000,9.5990000,57.5790000,52.4521000,59.8984000,-40.7550000,-10.9390000,6.0630000,0.000000,0,0,0
4.960,0.1268000,-0.1089000,9.5954000,57.6553000,52.6047000,59.8984000,-40.3350000,-10.7770000,5.3770000,0.000000,0,0,0
4.970,0.1196000,-0.1077000,9.5918000,57.7545000,52.6581000,59.8984000,-40.4150000,-11.0590000,5.3620000,0.000000,0,0,0
4.980,0.1077000,-0.1053000,9.5883000,57.8537000,52.6199000,59.8679000,-40.7000000,-11.0570000,5.4070000,0.000000,0,0,0
4.990,0.0897000,-0.1041000,9.5835000,57.9529000,52.5284000,59.8755000,-40.3890000,-11.1620000,5.0950000,0.000000,0,0,0
5.000,0.0730000,-0.1005000,9.5799000,57.9910000,52.4139000,59.9670000,-40.6000000,-10.9630000,5.1700000,0.000000,0,0,0
5.010,0.0622000,-0.0957000,9.5787000,57.9529000,52.3376000,60.1349000,-40.7220000,-10.8780000,4.9840000,0.000000,0,0,0
5.020,0.0646000,-0.0861000,9.5787000,57.8384000,52.3300000,60.3333000,-40.6760000,-11.0900000,5.8710000,0.000000,0,0,0
5.030,0.0766000,-0.0742000,9.5823000,57.6935000,52.3834000,60.4706000,-40.6220000,-11.0580000,6.0610000,0.000000,0,0,0
5.040,0.0981000,-0.0586000,9.5871000,57.5714000,52.5360000,60.4706000,-40.8100000,-11.0380000,5.6270000,0.000000,0,0,0
5.050,0.1184000,-0.0479000,9.5895000,57.4951000,52.7344000,60.3104000,-40.6190000,-11.0470000,5.3350000,0.000000,0,0,0
5.060,0.1268000,-0.0455000,9.5895000,57.4951000,52.9251000,60.0662000,-40.7190000,-10.7880000,5.2910000,0.000000,0,0,0
5.070,0.1220000,-0.0490000,9.5895000,57.5256000,53.0777000,59.8526000,-40.4760000,-10.9750000,4.8760000,0.000000,0,0,0
5.080,0.1125000,-0.0586000,9.5895000,57.5638000,53.2608000,59.7305000,-40.7840000,-11.0060000,5.1410000,0.000000,0,0,0
5.090,0.1005000,-0.0730000,9.5883000,57.5485000,53.4668000,59.7153000,-40.5960000,-11.1320000,4.8810000,0.000000,0,0,0
5.100,0.0945000,-0.0873000,9.5883000,57.4951000,53.6728000,59.7992000,-40.5810000,-10.7230000,5.7960000,0.000000,0,0,0
5.110,0.0921000,-0.0969000,9.5871000,57.4493000,53.8101000,59.9136000,-40.5540000,-10.8530000,5.4980000,0.000000,0,0,0
5.120,0.0909000,-0.0969000,9.5847000,57.4265000,53.8635000,60.0281000,-40.8090000,-10.8720000,5.2620000,0.000000,0,0,0
5.130,0.0885000,-0.0909000,9.5811000,57.4112000,53.8330000,60.1501000,-40.6110000,-10.8880000,5.7390000,0.000000,0,0,0
5.140,0.0837000,-0.0825000,9.5787000,57.4112000,53.7262000,60.2722000,-40.7550000,-11.1050000,6.2620000,0.000000,0,0,0
5.150,0.0837000,-0.0730000,9.5787000,57.4570000,53.5355000,60.4172000,-40.7720000,-10.9930000,5.5300000,0.000000,0,0,0
5.160,0.0873000,-0.0682000,9.5811000,57.4646000,53.4363000,60.4706000,-40.6160000,-10.7920000,5.7360000,0.000000,0,0,0
5.170,0.0897000,-0.0670000,9.5835000,57.4646000,53.3829000,60.4782000,-40.8140000,-10.9410000,5.5870000,0.000000,0,0,0
5.180,0.0909000,-0.0718000,9.5847000,57.4722000,53.3600000,60.4401000,-40.4360000,-11.0010000,5.4600000,0.000000,0,0,0
5.190,0.0885000,-0.0790000,9.5847000,57.4875000,53.3371000,60.3790000,-40.7660000,-10.5980000,4.9700000,0.000000,0,0,0
5.200,0.0861000,-0.0861000,9.5859000,57.5104000,53.3295000,60.3409000,-40.4940000,-10.7280000,5.5820000,0.000000,0,0,0
5.210,0.0873000,-0.0921000,9.5895000,57.5104000,53.3447000,60.3104000,-40.3610000,-10.8090000,5.6780000,0.000000,0,0,0
5.220,0.0885000,-0.0909000,9.5895000,57.4875000,53.3829000,60.2798000,-40.7260000,-10.8100000,5.7130000,0.000000,0,0,0
5.230,0.0873000,-0.0897000,9.5871000,57.4493000,53.3905000,60.2951000,-40.3820000,-10.5360000,5.9120000,0.000000,0,0,0
5.240,0.0825000,-0.0885000,9.5847000,57.4112000,53.3295000,60.3790000,-40.8030000,-11.0670000,5.5000000,0.000000,0,0,0
5.250,0.0825000,-0.0873000,9.5859000,57.4265000,53.2150000,60.4935000,-40.4590000,-10.7000000,5.1650000,0.000000,0,0,0
5.260,0.0837000,-0.0837000,9.5859000,57.5027000,53.0853000,60.5927000,-40.3660000,-10.7500000,5.5860000,0.000000,0,0,0
5.270,0.0849000,-0.0813000,9.5859000,57.5790000,52.9709000,60.6308000,-40.5700000,-10.9340000,5.5900000,0.000000,0,0,0
5.280,0.0897000,-0.0790000,9.5871000,57.6248000,52.9556000,60.6155000,-40.3310000,-10.8870000,5.7120000,0.000000,0,0,0
5.290,0.0933000,-0.0790000,9.5906000,57.6401000,53.0472000,60.5316000,-40.3680000,-10.9240000,5.6440000,0.000000,0,0,0
5.300,0.0945000,-0.0802000,9.5906000,57.6324000,53.1845000,60.4248000,-40.6610000,-11.2620000,5.6780000,0.000000,0,0,0
5.310,0.0921000,-0.0849000,9.5906000,57.6172000,53.2837000,60.3485000,-40.5780000,-10.7630000,5.3700000,0.000000,0,0,0
5.320,0.0897000,-0.0861000,9.5883000,57.6248000,53.3142000,60.3180000,-40.6370000,-10.6050000,5.2500000,0.000000,0,0,0
5.330,0.0849000,-0.0861000,9.5871000,57.6401000,53.2913000,60.3256000,-40.8310000,-10.7790000,5.8470000,0.000000,0,0,0
5.340,0.0813000,-0.0873000,9.5871000,57.6553000,53.2455000,60.3714000,-40.7010000,-11.0000000,6.4600000,0.000000,0,0,0
5.350,0.0778000,-0.0909000,9.5859000,57.6630000,53.1769000,60.4172000,-40.2830000,-10.8820000,6.0960000,0.000000,0,0,0
5.360,0.0766000,-0.0933000,9.5847000,57.6935000,53.0930000,60.4477000,-40.6130000,-10.9190000,5.8500000,0.000000,0,0,0
5.370,0.0778000,-0.0909000,9.5859000,57.7469000,53.0319000,60.3943000,-40.2500000,-10.6190000,5.2420000,0.000000,0,0,0
5.380,0.0813000,-0.0861000,9.5871000,57.8003000,53.0243000,60.2646000,-40.5370000,-10.9510000,5.6840000,0.000000,0,0,0
5.390,0.0861000,-0.0813000,9.5883000,57.8232000,53.0548000,60.1196000,-40.2680000,-10.9610000,5.5000000,0.000000,0,0,0
5.400,0.0885000,-0.0790000,9.5871000,57.8079000,53.1082000,60.0052000,-40.8190000,-11.1400000,5.2870000,0.000000,0,0,0
5.410,0.0802000,-0.0778000,9.5835000,57.7469000,53.1387000,59.9899000,-40.6210000,-10.8190000,5.5160000,0.000000,0,0,0
5.420,0.0694000,-0.0790000,9.5799000,57.6859000,53.0930000,60.0891000,-40.5590000,-10.7420000,4.9960000,0.000000,0,0,0
5.430,0.0622000,-0.0802000,9.5799000,57.6477000,53.0167000,60.2417000,-40.6720000,-10.7700000,5.3470000,0.000000,0,0,0
5.440,0.0622000,-0.0790000,9.5823000,57.6324000,52.9785000,60.4019000,-40.7470000,-11.1320000,5.3410000,0.000000,0,0,0
5.450,0.0658000,-0.0778000,9.5847000,57.6019000,52.9861000,60.5164000,-40.5420000,-10.6530000,5.0340000,0.000000,0,0,0
5.460,0.0730000,-0.0778000,9.5871000,57.5562000,53.0243000,60.5774000,-40.7220000,-10.8850000,4.9560000,0.000000,0,0,0
5.470,0.0766000,-0.0778000,9.5883000,57.5333000,53.0624000,60.5698000,-40.7100000,-10.5350000,4.5740000,0.000000,0,0,0
5.480,0.0742000,-0.0778000,9.5859000,57.5333000,53.0624000,60.5392000,-40.6780000,-10.8980000,5.2760000,0.000000,0,0,0
5.490,0.0658000,-0.0802000,9.5823000,57.5409000,53.0090000,60.5316000,-40.8990000,-10.7680000,5.3320000,0.000000,0,0,0
5.500,0.0574000,-0.0790000,9.5775000,57.5409000,52.9175000,60.5698000,-40.4720000,-10.6270000,5.2360000,0.000000,0,0,0
5.510,0.0526000,-0.0766000,9.5763000,57.5027000,52.8183000,60.6613000,-40.7390000,-11.0170000,5.9990000,0.000000,0,0,0
5.520,0.0538000,-0.0754000,9.5763000,57.4493000,52.7115000,60.7452000,-40.4660000,-10.9380000,5.4370000,0.000000,0,0,0
5.530,0.0610000,-0.0706000,9.5763000,57.3959000,52.5970000,60.7834000,-40.4180000,-11.0100000,5.8060000,0.000000,0,0,0
5.540,0.0718000,-0.0658000,9.5763000,57.3730000,52.3605000,60.7910000,-40.8110000,-10.8090000,5.5600000,0.000000,0,0,0
5.550,0.0849000,-0.0598000,9.5775000,57.3959000,52.0630000,60.7300000,-40.5360000,-10.6260000,5.4660000,0.000000,0,0,0
5.560,0.0921000,-0.0574000,9.5787000,57.4570000,51.7654000,60.5698000,-40.6490000,-10.9340000,5.6740000,0.000000,0,0,0
5.570,0.0861000,-0.0658000,9.5775000,57.5180000,51.5060000,60.4324000,-40.7680000,-10.8740000,6.2310000,0.000000,0,0,0
5.580,0.0790000,-0.0766000,9.5775000,57.5943000,51.2314000,60.3638000,-40.5440000,-10.9080000,6.3470000,0.000000,0,0,0
5.590,0.0754000,-0.0861000,9.5799000,57.6477000,50.9720000,60.3790000,-40.5970000,-10.8390000,5.7440000,0.000000,0,0,0
5.600,0.0790000,-0.0897000,9.5787000,57.7164000,50.7278000,60.4706000,-40.7950000,-10.8790000,5.4350000,0.000000,0,0,0
5.610,0.0909000,-0.0921000,9.5799000,57.8003000,50.4990000,60.6461000,-40.6450000,-10.8880000,5.2520000,0.000000,0,0,0
5.620,0.1136000,-0.0993000,9.5859000,57.8537000,50.3693000,60.8902000,-40.9390000,-10.7370000,5.7890000,0.000000,0,0,0
5.630,0.1459000,-0.1113000,9.5966000,57.8766000,50.4379000,61.1115000,-40.8760000,-11.2770000,5.4900000,0.000000,0,0,0
5.640,0.1759000,-0.1232000,9.6026000,57.9300000,50.6363000,61.2106000,-40.4980000,-10.7390000,5.1540000,0.000000,0,0,0
5.650,0.1890000,-0.1280000,9.6026000,58.0444000,50.8347000,61.1877000,-40.9580000,-10.9570000,5.0900000,0.000000,0,0,0
5.660,0.1866000,-0.1196000,9.6002000,58.1818000,50.9872000,61.1038000,-40.5230000,-10.7360000,5.1290000,0.000000,0,0,0
5.670,0.1735000,-0.0969000,9.5942000,58.2962000,51.1322000,60.9665000,-40.6830000,-10.7460000,5.1210000,0.000000,0,0,0
5.680,0.1388000,-0.0610000,9.5823000,58.2886000,51.3077000,60.8521000,-40.5770000,-10.8470000,5.5060000,0.000000,0,0,0
5.690,0.1220000,-0.0479000,9.5751000,58.1665000,51.3763000,60.9055000,-40.6560000,-10.9700000,5.5190000,0.000000,0,0,0
5.700,0.1172000,-0.0443000,9.5715000,58.0292000,51.3840000,61.0199000,-40.7190000,-10.6890000,5.5820000,0.000000,0,0,0
5.710,0.1220000,-0.0502000,9.5727000,57.9147000,51.3229000,61.1343000,-40.4670000,-11.0390000,5.2200000,0.000000,0,0,0
5.720,0.1304000,-0.0610000,9.5751000,57.8766000,51.2238000,61.1877000,-40.5000000,-10.9860000,4.9350000,0.000000,0,0,0
5.730,0.1436000,-0.0682000,9.5775000,57.9224000,51.1551000,61.1038000,-40.9740000,-10.8790000,5.5540000,0.000000,0,0,0
5.740,0.1687000,-0.0718000,9.5823000,58.0368000,51.1475000,60.9055000,-40.8760000,-10.9530000,4.7720000,0.000000,0,0,0
5.750,0.1759000,-0.0742000,9.5859000,58.2352000,51.2238000,60.6003000,-40.6040000,-11.1550000,6.1200000,0.000000,0,0,0
5.760,0.1914000,-0.0706000,9.5871000,58.4106000,51.3992000,60.2951000,-40.6180000,-11.1110000,5.9300000,0.000000,0,0,0
5.770,0.2022000,-0.0706000,9.5883000,58.4946000,51.7120000,60.0204000,-40.5880000,-11.0880000,5.7860000,0.000000,0,0,0
5.780,0.2010000,-0.0742000,9.5883000,58.4488000,52.1545000,59.8450000,-40.3440000,-11.0170000,5.5880000,0.000000,0,0,0
5.790,0.1878000,-0.0825000,9.5859000,58.3267000,52.6199000,59.8068000,-40.7500000,-11.1650000,5.3960000,0.000000,0,0,0
5.800,0.1687000,-0.0909000,9.5811000,58.1894000,52.9861000,59.8907000,-40.4330000,-10.9460000,5.7520000,0.000000,0,0,0
5.810,0.1483000,-0.0897000,9.5751000,58.0826000,53.2150000,60.0662000,-40.3030000,-11.0040000,5.8650000,0.000000,0,0,0
5.820,0.1352000,-0.0802000,9.5715000,57.9529000,53.3371000,60.2417000,-40.4400000,-11.2560000,5.4300000,0.000000,0,0,0
5.830,0.1256000,-0.0670000,9.5667000,57.8003000,53.3600000,60.3790000,-40.3920000,-11.0060000,5.2650000,0.000000,0,0,0
5.840,0.1160000,-0.0550000,9.5631000,57.6324000,53.2990000,60.4706000,-40.5450000,-11.0960000,6.0880000,0.000000,0,0,0
5.850,0.1196000,-0.0467000,9.5631000,57.4799000,53.2150000,60.5392000,-40.5450000,-11.0670000,5.3020000,0.000000,0,0,0
5.860,0.1388000,-0.0419000,9.5667000,57.3502000,53.1540000,60.5698000,-40.4050000,-11.1270000,5.4970000,0.000000,0,0,0
5.870,0.1579000,-0.0431000,9.5715000,57.2891000,53.0930000,60.5240000,-40.7020000,-10.9870000,5.2400000,0.000000,0,0,0
5.880,0.1699000,-0.0490000,9.5751000,57.3044000,52.9861000,60.4401000,-40.5240000,-10.7060000,5.6830000,0.000000,0,0,0
5.890,0.1723000,-0.0562000,9.5763000,57.3730000,52.8641000,60.3104000,-40.4750000,-10.9900000,4.9280000,0.000000,0,0,0
5.900,0.1675000,-0.0610000,9.5775000,57.4265000,52.8259000,60.1578000,-40.6910000,-10.9610000,5.3580000,0.000000,0,0,0
5.910,0.1567000,-0.0706000,9.5799000,57.3959000,52.8488000,60.0357000,-40.6620000,-11.0690000,5.4270000,0.000000,0,0,0
5.920,0.1483000,-0.0813000,9.5787000,57.3273000,52.8717000,59.9823000,-40.8440000,-11.1510000,6.4300000,0.000000,0,0,0
5.930,0.1471000,-0.0921000,9.5775000,57.2739000,52.8717000,59.9747000,-40.8780000,-11.3370000,5.8200000,0.000000,0,0,0
5.940,0.1543000,-0.0969000,9.5775000,57.2586000,52.8717000,59.9823000,-40.8710000,-10.9700000,5.8280000,0.000000,0,0,0
5.950,0.1639000,-0.0969000,9.5823000,57.2739000,52.9099000,59.9976000,-40.5740000,-10.8080000,5.0790000,0.000000,0,0,0
5.960,0.1747000,-0.0933000,9.5859000,57.3196000,52.9861000,59.9976000,-40.8960000,-10.7510000,5.7640000,0.000000,0,0,0
5.970,0.1866000,-0.0861000,9.5871000,57.3883000,53.0930000,59.9594000,-40.6820000,-11.1030000,5.5870000,0.000000,0,0,0
5.980,0.1878000,-0.0766000,9.5847000,57.4570000,53.2150000,59.8831000,-40.5200000,-11.0270000,5.6060000,0.000000,0,0,0
5.990,0.1842000,-0.0694000,9.5835000,57.5027000,53.3371000,59.7992000,-40.5200000,-11.0910000,5.0470000,0.000000,0,0,0
6.000,0.1747000,-0.0706000,9.5811000,57.5256000,53.4134000,59.7076000,-40.6320000,-11.2900000,5.4280000,0.000000,0,0,0
6.010,0.1639000,-0.0730000,9.5787000,57.5790000,53.3371000,59.5856000,-40.5660000,-11.2680000,4.9240000,0.000000,0,0,0
6.020,0.1591000,-0.0706000,9.5739000,57.6477000,53.0853000,59.4330000,-40.5620000,-11.0850000,5.0600000,0.000000,0,0,0
6.030,0.1651000,-0.0586000,9.5715000,57.7164000,52.6962000,59.1583000,-40.6280000,-11.1710000,5.1510000,0.000000,0,0,0
6.040,0.1723000,-0.0455000,9.5703000,57.8003000,52.3376000,58.8303000,-40.9320000,-11.1400000,5.5390000,0.000000,0,0,0
6.050,0.1830000,-0.0335000,9.5715000,57.8308000,52.1011000,58.5175000,-40.3970000,-11.0040000,5.4070000,0.000000,0,0,0
6.060,0.1938000,-0.0335000,9.5739000,57.7850000,52.0630000,58.2504000,-40.6650000,-11.1160000,5.2530000,0.000000,0,0,0
6.070,0.1902000,-0.0467000,9.5763000,57.7240000,52.1393000,58.0902000,-40.3290000,-10.7060000,5.3180000,0.000000,0,0,0
6.080,0.1723000,-0.0634000,9.5787000,57.6706000,52.3071000,58.0673000,-40.9470000,-11.3550000,4.7240000,0.000000,0,0,0
6.090,0.1507000,-0.0766000,9.5763000,57.5867000,52.4979000,58.1589000,-40.7890000,-10.9590000,4.3780000,0.000000,0,0,0
6.100,0.1268000,-0.0813000,9.5715000,57.5256000,52.5665000,58.3191000,-40.5010000,-10.9210000,5.3970000,0.000000,0,0,0
6.110,0.1101000,-0.0802000,9.5643000,57.5180000,52.4445000,58.4412000,-40.7730000,-10.8560000,5.2870000,0.000000,0,0,0
6.120,0.1005000,-0.0706000,9.5572000,57.5409000,52.0782000,58.5403000,-40.8630000,-11.0700000,5.9990000,0.000000,0,0,0
6.130,0.0957000,-0.0562000,9.5548000,57.7164000,51.4374000,58.7540000,-40.4770000,-10.8980000,5.2370000,0.000000,0,0,0
6.140,0.1101000,-0.0431000,9.5583000,58.0063000,50.7278000,59.0820000,-40.7730000,-10.8990000,5.5550000,0.000000,0,0,0
6.150,0.1424000,-0.0407000,9.5667000,58.2199000,50.2319000,59.4177000,-40.6500000,-10.7770000,4.8940000,0.000000,0,0,0
6.160,0.1771000,-0.0526000,9.5763000,58.3191000,50.0717000,59.6619000,-40.7290000,-10.5030000,4.8650000,0.000000,0,0,0
6.170,0.2141000,-0.0742000,9.5823000,58.2886000,50.1862000,59.6924000,-40.9010000,-11.0070000,4.8850000,0.000000,0,0,0
6.180,0.2345000,-0.0933000,9.5799000,58.1207000,50.3159000,59.5398000,-40.7980000,-10.9900000,4.8730000,0.000000,0,0,0
6.190,0.2321000,-0.1005000,9.5751000,57.9987000,50.1862000,59.4254000,-40.7490000,-10.6020000,4.9560000,0.000000,0,0,0
6.200,0.2213000,-0.1041000,9.5715000,58.0292000,49.8810000,59.3948000,-40.7940000,-10.8060000,5.1300000,0.000000,0,0,0
6.210,0.2070000,-0.1041000,9.5643000,58.1360000,49.5682000,59.3414000,-40.7920000,-10.8260000,5.0040000,0.000000,0,0,0
6.220,0.1794000,-0.1053000,9.5560000,58.2581000,49.1867000,59.4254000,-40.6730000,-10.7480000,5.0640000,0.000000,0,0,0
6.230,0.1388000,-0.1184000,9.5488000,58.4946000,48.2407000,60.0357000,-40.9400000,-10.8590000,4.6680000,0.000000,0,0,0
6.240,0.1364000,-0.1208000,9.5500000,58.5938000,47.4930000,60.5392000,-41.0320000,-11.0450000,4.3070000,0.000000,0,0,0
6.250,0.1555000,-0.1101000,9.5524000,58.6853000,46.7987000,60.8292000,-40.8840000,-11.0390000,4.9270000,0.000000,0,0,0
6.260,0.1914000,-0.0825000,9.5560000,58.7616000,46.3028000,60.8368000,-40.7490000,-10.6960000,4.5890000,0.000000,0,0,0
6.270,0.2345000,-0.0467000,9.5572000,58.8303000,45.7840000,60.7605000,-41.1060000,-10.8610000,4.2210000,0.000000,0,0,0
6.280,0.2883000,-0.0132000,9.5572000,58.9218000,45.0821000,60.5087000,-40.9110000,-10.7090000,4.6690000,0.000000,0,0,0
6.290,0.3613000,0.0191000,9.5572000,58.9828000,44.3497000,60.0357000,-41.1270000,-10.8320000,5.1770000,0.000000,0,0,0
6.300,0.4271000,0.0419000,9.5619000,59.0515000,43.7317000,59.3872000,-41.2620000,-10.7080000,4.1630000,0.000000,0,0,0
6.310,0.4558000,0.0419000,9.5631000,59.1507000,43.1976000,58.7616000,-41.1320000,-10.6200000,4.1000000,0.000000,0,0,0
6.320,0.4426000,0.0251000,9.5583000,59.2575000,42.6941000,58.4106000,-41.1040000,-10.7150000,3.9580000,0.000000,0,0,0
6.330,0.4127000,0.0012000,9.5452000,59.3033000,42.2440000,58.4183000,-41.0110000,-10.9670000,4.2770000,0.000000,0,0,0
6.340,0.3649000,-0.0311000,9.5332000,59.2728000,41.8701000,58.7616000,-41.3150000,-10.8690000,4.1770000,0.000000,0,0,0
6.350,0.3134000,-0.0718000,9.5237000,59.1736000,41.5344000,59.3033000,-41.4380000,-10.7340000,4.4170000,0.000000,0,0,0
6.360,0.2943000,-0.0981000,9.5237000,58.9294000,41.3055000,60.0357000,-41.1680000,-10.8440000,4.5010000,0.000000,0,0,0
6.370,0.3385000,-0.1113000,9.5320000,58.5632000,41.2292000,60.6995000,-41.2710000,-10.7180000,4.0660000,0.000000,0,0,0
6.380,0.4187000,-0.1101000,9.5392000,58.1741000,41.2827000,60.9055000,-41.5170000,-10.6340000,4.0310000,0.000000,0,0,0
6.390,0.4977000,-0.0909000,9.5356000,57.8384000,41.0843000,60.6918000,-41.7000000,-10.6600000,4.1690000,0.000000,0,0,0
6.400,0.5539000,-0.0562000,9.5272000,57.5867000,40.3137000,60.3333000,-41.5920000,-10.6140000,3.3630000,0.000000,0,0,0
6.410,0.5670000,-0.0156000,9.5093000,57.3959000,38.9404000,60.0204000,-41.5340000,-10.6730000,3.4570000,0.000000,0,0,0
6.420,0.5539000,0.0227000,9.4878000,57.2433000,37.1552000,59.8373000,-41.7140000,-10.7170000,3.8160000,0.000000,0,0,0
6.430,0.5288000,0.0502000,9.4710000,57.1136000,35.3394000,59.7839000,-41.6480000,-10.6870000,4.0660000,0.000000,0,0,0
6.440,0.4917000,0.0622000,9.4638000,57.0374000,33.9661000,59.8373000,-41.6850000,-10.7520000,3.8890000,0.000000,0,0,0
6.450,0.4630000,0.0622000,9.4579000,57.0068000,33.2642000,59.9136000,-41.5590000,-10.5040000,3.1990000,0.000000,0,0,0
6.460,0.4785000,0.0502000,9.4579000,56.8924000,33.1573000,60.0967000,-41.8150000,-10.6170000,3.9290000,0.000000,0,0,0
6.470,0.5371000,0.0371000,9.4603000,56.5872000,33.3786000,60.3943000,-41.6120000,-10.8220000,3.2960000,0.000000,0,0,0
6.480,0.6292000,0.0215000,9.4710000,56.1829000,33.6990000,60.6232000,-41.9590000,-11.1430000,3.2170000,0.000000,0,0,0
6.490,0.7513000,-0.0012000,9.4878000,55.8701000,34.1187000,60.6995000,-41.7170000,-10.9430000,3.4770000,0.000000,0,0,0
6.500,0.8757000,-0.0156000,9.5009000,55.7480000,34.7214000,60.5316000,-41.9570000,-10.9600000,3.2130000,0.000000,0,0,0
6.510,0.9726000,-0.0132000,9.5081000,55.7785000,35.4996000,60.1654000,-41.7560000,-10.9610000,3.4420000,0.000000,0,0,0
6.520,1.0432000,0.0000000,9.5105000,55.8853000,36.3464000,59.7076000,-41.8880000,-10.9570000,3.9070000,0.000000,0,0,0
6.530,1.0814000,0.0120000,9.5057000,56.0226000,37.1323000,59.1965000,-42.0890000,-11.0510000,3.2710000,0.000000,0,0,0
6.540,1.0826000,0.0144000,9.4997000,56.1829000,37.9181000,58.6395000,-41.9320000,-10.9510000,3.4180000,0.000000,0,0,0
6.550,1.0671000,0.0000000,9.4949000,56.4346000,38.6734000,58.0673000,-42.1320000,-10.9710000,3.0630000,0.000000,0,0,0
6.560,1.0468000,-0.0203000,9.4890000,56.7703000,39.2303000,57.5333000,-42.1750000,-10.9940000,3.3030000,0.000000,0,0,0
6.570,1.0216000,-0.0395000,9.4734000,57.0221000,39.3982000,57.1365000,-42.3540000,-11.0430000,3.4130000,0.000000,0,0,0
6.580,1.0145000,-0.0431000,9.4591000,57.0068000,39.0091000,57.0526000,-42.1730000,-10.9110000,3.1800000,0.000000,0,0,0
6.590,1.0288000,-0.0383000,9.4483000,56.7245000,38.2843000,57.1899000,-42.5890000,-10.6820000,2.6170000,0.000000,0,0,0
6.600,1.0527000,-0.0347000,9.4435000,56.3431000,37.6129000,57.4341000,-42.1730000,-10.9110000,3.0770000,0.000000,0,0,0
6.610,1.0838000,-0.0323000,9.4351000,56.1523000,37.2849000,57.6248000,-42.0940000,-10.8690000,2.6600000,0.000000,0,0,0
6.620,1.1114000,-0.0203000,9.4232000,56.2363000,37.5137000,57.7087000,-42.2830000,-10.6350000,2.9100000,0.000000,0,0,0
6.630,1.1269000,-0.0048000,9.4184000,56.5033000,38.2309000,57.8232000,-42.3960000,-10.8690000,2.8190000,0.000000,0,0,0
6.640,1.1484000,0.0048000,9.4208000,56.7856000,38.8870000,58.0597000,-42.3660000,-10.8170000,2.8940000,0.000000,0,0,0
6.650,1.1807000,0.0144000,9.4268000,56.9077000,39.0015000,58.5175000,-42.4860000,-10.6730000,3.2030000,0.000000,0,0,0
6.660,1.2238000,0.0227000,9.4232000,56.7093000,38.3606000,59.2422000,-42.4720000,-10.8890000,2.0230000,0.000000,0,0,0
6.670,1.2740000,0.0108000,9.4040000,56.2744000,37.1552000,60.1273000,-42.5260000,-10.6840000,2.1510000,0.000000,0,0,0
6.680,1.3279000,-0.0179000,9.3669000,55.8701000,35.7742000,60.8749000,-42.5860000,-10.8310000,2.3030000,0.000000,0,0,0
6.690,1.3757000,-0.0526000,9.3275000,55.6259000,34.8969000,61.2106000,-42.9190000,-10.8850000,2.0360000,0.000000,0,0,0
6.700,1.3937000,-0.0790000,9.3071000,55.5801000,34.8740000,61.1038000,-43.0110000,-11.0290000,1.9500000,0.000000,0,0,0
6.710,1.3853000,-0.0993000,9.3071000,55.7632000,35.6522000,60.7758000,-42.5840000,-10.9860000,1.9910000,0.000000,0,0,0
6.720,1.3709000,-0.1113000,9.3215000,56.0303000,37.0331000,60.5392000,-42.8050000,-10.7640000,2.0030000,0.000000,0,0,0
6.730,1.3542000,-0.1077000,9.3466000,56.2210000,38.6505000,60.5087000,-42.6390000,-10.7400000,1.5290000,0.000000,0,0,0
6.740,1.3506000,-0.1005000,9.3657000,56.1676000,40.1382000,60.6537000,-42.8820000,-11.1350000,2.4010000,0.000000,0,0,0
6.750,1.3650000,-0.1029000,9.3741000,55.9082000,41.1301000,60.9970000,-42.6590000,-10.7380000,2.0490000,0.000000,0,0,0
6.760,1.4272000,-0.1136000,9.3610000,55.3894000,41.3895000,61.6150000,-42.7780000,-10.8080000,2.0290000,0.000000,0,0,0
6.770,1.4667000,-0.1172000,9.3394000,55.1758000,40.9012000,61.9049000,-42.3650000,-11.0330000,1.7070000,0.000000,0,0,0
6.780,1.4954000,-0.1220000,9.3155000,55.1910000,40.3366000,62.0651000,-42.7560000,-10.9440000,1.5460000,0.000000,0,0,0
6.790,1.5001000,-0.1184000,9.3000000,55.5191000,39.9399000,62.0880000,-42.6770000,-10.9710000,1.6050000,0.000000,0,0,0
6.800,1.4918000,-0.1089000,9.2928000,56.0760000,39.9399000,62.0651000,-42.4770000,-11.1880000,2.0620000,0.000000,0,0,0
6.810,1.4870000,-0.1029000,9.2964000,56.7245000,40.1993000,62.1262000,-42.5720000,-10.8660000,1.8260000,0.000000,0,0,0
6.820,1.4978000,-0.1005000,9.3035000,57.3273000,40.5045000,62.2559000,-42.6710000,-11.1020000,1.6720000,0.000000,0,0,0
6.830,1.5253000,-0.1005000,9.3023000,57.7850000,40.8173000,62.3550000,-42.9260000,-10.8340000,2.0500000,0.000000,0,0,0
6.840,1.5659000,-0.1065000,9.2928000,58.1512000,40.9698000,62.3856000,-42.6990000,-11.1380000,2.1080000,0.000000,0,0,0
6.850,1.6054000,-0.1148000,9.2796000,58.5327000,40.8478000,62.3779000,-42.5100000,-11.0700000,1.4130000,0.000000,0,0,0
6.860,1.6473000,-0.1113000,9.2665000,58.8455000,40.5426000,62.3169000,-42.6050000,-11.2020000,1.1060000,0.000000,0,0,0
6.870,1.6832000,-0.1041000,9.2593000,58.9447000,40.1154000,62.2253000,-42.4290000,-11.1120000,1.3440000,0.000000,0,0,0
6.880,1.7107000,-0.1005000,9.2569000,58.7997000,39.5432000,62.2025000,-42.7050000,-10.7060000,0.8680000,0.000000,0,0,0
6.890,1.7262000,-0.1101000,9.2605000,58.5480000,38.9938000,62.2635000,-42.6650000,-10.4860000,1.3930000,0.000000,0,0,0
6.900,1.7418000,-0.1232000,9.2581000,58.3649000,38.7192000,62.3398000,-42.8090000,-10.7810000,0.7580000,0.000000,0,0,0
6.910,1.7633000,-0.1304000,9.2533000,58.3038000,38.7573000,62.3322000,-42.8060000,-10.9300000,0.9520000,0.000000,0,0,0
6.920,1.7849000,-0.1328000,9.2533000,58.3038000,38.9481000,62.2787000,-43.1640000,-10.8930000,0.8920000,0.000000,0,0,0
6.930,1.7980000,-0.1328000,9.2581000,58.2428000,39.1006000,62.3245000,-42.8920000,-10.9860000,0.9710000,0.000000,0,0,0
6.940,1.8184000,-0.1376000,9.2581000,58.0444000,39.0244000,62.4695000,-43.1280000,-11.0720000,0.7140000,0.000000,0,0,0
6.950,1.8578000,-0.1400000,9.2569000,57.6935000,38.5818000,62.6144000,-42.8660000,-10.8020000,0.3370000,0.000000,0,0,0
6.960,1.8949000,-0.1376000,9.2437000,57.1899000,37.9868000,62.6144000,-42.9890000,-11.1990000,0.7890000,0.000000,0,0,0
6.970,1.9188000,-0.1340000,9.2174000,56.5491000,37.4985000,62.4619000,-42.9850000,-10.9800000,0.6980000,0.000000,0,0,0
6.980,1.9308000,-0.1244000,9.1851000,55.7556000,37.3535000,62.2864000,-43.1020000,-11.2200000,0.8520000,0.000000,0,0,0
6.990,1.9296000,-0.1089000,9.1696000,54.8553000,37.7121000,62.1185000,-43.0520000,-11.0890000,0.6590000,0.000000,0,0,0
7.000,1.9260000,-0.1053000,9.1708000,54.0848000,38.4598000,62.0270000,-43.4260000,-11.1920000,0.1090000,0.000000,0,0,0
7.010,1.9308000,-0.1125000,9.1815000,53.6728000,39.2456000,62.0575000,-43.2270000,-10.9860000,0.2620000,0.000000,0,0,0
7.020,1.9488000,-0.1292000,9.1935000,53.6652000,39.7568000,62.2177000,-43.2580000,-11.0600000,-0.0120000,0.000000,0,0,0
7.030,1.9882000,-0.1412000,9.1923000,53.9322000,39.8788000,62.3779000,-43.3140000,-10.9580000,0.3740000,0.000000,0,0,0
7.040,2.0349000,-0.1591000,9.1839000,54.2908000,39.5355000,62.4237000,-42.9010000,-10.9320000,0.0060000,0.000000,0,0,0
7.050,2.0839000,-0.1723000,9.1660000,54.6341000,38.8031000,62.4161000,-43.0710000,-11.2460000,-0.0550000,0.000000,0,0,0
7.060,2.1330000,-0.1878000,9.1456000,54.8172000,37.7579000,62.4695000,-43.0820000,-11.2780000,-0.1060000,0.000000,0,0,0
7.070,2.1725000,-0.1950000,9.1265000,54.8477000,36.6898000,62.5076000,-42.9660000,-11.3560000,-0.3170000,0.000000,0,0,0
7.080,2.2095000,-0.1890000,9.1145000,54.7867000,36.1099000,62.3856000,-43.1940000,-11.1170000,0.1840000,0.000000,0,0,0
7.090,2.2299000,-0.1866000,9.1097000,54.7333000,36.2320000,62.0804000,-42.9690000,-11.2650000,-0.6470000,0.000000,0,0,0
7.100,2.2502000,-0.1866000,9.1062000,54.7791000,36.9263000,61.6379000,-43.2180000,-11.2570000,-0.6160000,0.000000,0,0,0
7.110,2.2694000,-0.1890000,9.1085000,54.8706000,37.8876000,61.1572000,-43.1970000,-11.2210000,-0.8750000,0.000000,0,0,0
7.120,2.2861000,-0.1914000,9.1145000,54.9316000,38.7878000,60.7834000,-43.2030000,-11.1390000,-0.7310000,0.000000,0,0,0
7.130,2.3005000,-0.1914000,9.1181000,54.9088000,39.3982000,60.6155000,-43.3110000,-11.3570000,-0.9630000,0.000000,0,0,0
7.140,2.3184000,-0.1926000,9.1038000,54.7714000,39.7415000,60.6613000,-43.5970000,-11.2920000,-0.6590000,0.000000,0,0,0
7.150,2.3387000,-0.2082000,9.0762000,54.5883000,39.8102000,60.8368000,-43.3780000,-11.4680000,-0.4390000,0.000000,0,0,0
7.160,2.3483000,-0.2297000,9.0475000,54.4128000,39.7415000,61.0428000,-43.4900000,-11.1850000,-0.1680000,0.000000,0,0,0
7.170,2.3615000,-0.2381000,9.0308000,54.2374000,39.7797000,61.2106000,-43.2450000,-11.2410000,-0.7330000,0.000000,0,0,0
7.180,2.3818000,-0.2405000,9.0296000,54.1382000,40.0925000,61.2717000,-43.4580000,-11.6480000,-0.7550000,0.000000,0,0,0
7.190,2.4033000,-0.2440000,9.0356000,54.2755000,40.5273000,61.2869000,-43.4630000,-11.3090000,-0.7300000,0.000000,0,0,0
7.200,2.4261000,-0.2572000,9.0380000,54.7104000,40.7791000,61.3632000,-43.7230000,-11.4620000,-0.5410000,0.000000,0,0,0
7.210,2.4512000,-0.2871000,9.0308000,55.3970000,40.6265000,61.5082000,-43.3560000,-11.2440000,-0.4810000,0.000000,0,0,0
7.220,2.4763000,-0.3182000,9.0188000,56.1752000,40.1154000,61.6608000,-43.7380000,-11.3550000,-0.6330000,0.000000,0,0,0
7.230,2.5062000,-0.3278000,8.9997000,56.7703000,39.5660000,61.7447000,-43.6450000,-11.4420000,-0.6840000,0.000000,0,0,0
7.240,2.5230000,-0.3182000,8.9805000,56.9687000,39.2990000,61.6989000,-43.7160000,-11.4260000,-1.2100000,0.000000,0,0,0
7.250,2.5361000,-0.3015000,8.9542000,56.6940000,39.6423000,61.4548000,-43.5510000,-11.2890000,-1.3530000,0.000000,0,0,0
7.260,2.5445000,-0.2895000,8.9339000,56.1142000,40.5197000,61.0733000,-43.9600000,-11.3690000,-1.0440000,0.000000,0,0,0
7.270,2.5553000,-0.2931000,8.9363000,55.2902000,41.9388000,60.6308000,-43.8830000,-11.4790000,-1.1310000,0.000000,0,0,0
7.280,2.5648000,-0.2931000,8.9530000,55.0995000,42.4423000,60.5927000,-43.6770000,-11.3730000,-1.4760000,0.000000,0,0,0
7.290,2.5936000,-0.2835000,8.9614000,55.1300000,42.5110000,60.6766000,-43.7320000,-11.2630000,-1.3910000,0.000000,0,0,0
7.300,2.6271000,-0.2751000,8.9626000,55.2597000,42.3889000,60.7300000,-43.5410000,-11.5100000,-1.1540000,0.000000,0,0,0
7.310,2.6570000,-0.2728000,8.9710000,55.4199000,42.1982000,60.7529000,-43.5320000,-11.2200000,-1.3250000,0.000000,0,0,0
7.320,2.6881000,-0.2787000,8.9829000,55.6412000,41.8930000,60.7758000,-43.3900000,-11.4230000,-1.2810000,0.000000,0,0,0
7.330,2.7168000,-0.2907000,8.9925000,55.9540000,41.4276000,60.8063000,-43.6670000,-11.5140000,-1.6180000,0.000000,0,0,0
7.340,2.7383000,-0.3063000,8.9889000,56.3660000,40.8707000,60.8673000,-43.4950000,-11.1240000,-1.8040000,0.000000,0,0,0
7.350,2.7622000,-0.3206000,8.9710000,56.8848000,40.1993000,60.9818000,-43.7970000,-11.3210000,-1.9680000,0.000000,0,0,0
7.360,2.7838000,-0.3206000,8.9518000,57.3730000,39.5050000,61.1267000,-43.3090000,-11.3840000,-1.7040000,0.000000,0,0,0
7.370,2.8113000,-0.3074000,8.9255000,57.6172000,39.0625000,61.2106000,-43.5590000,-11.2470000,-1.9120000,0.000000,0,0,0
7.380,2.8340000,-0.2955000,8.9016000,57.5409000,39.0244000,61.1649000,-43.6230000,-11.3260000,-2.0420000,0.000000,0,0,0
7.390,2.8448000,-0.2907000,8.8860000,57.2433000,39.3066000,61.0733000,-43.8190000,-11.2860000,-1.6430000,0.000000,0,0,0
7.400,2.8520000,-0.2835000,8.8824000,56.8695000,39.5813000,61.0504000,-43.7470000,-11.2190000,-1.7990000,0.000000,0,0,0
7.410,2.8699000,-0.2787000,8.8860000,56.5338000,39.6881000,61.1115000,-43.5260000,-11.2000000,-1.4050000,0.000000,0,0,0
7.420,2.8926000,-0.2787000,8.8896000,56.3965000,39.5203000,61.1954000,-43.6880000,-11.2250000,-2.1550000,0.000000,0,0,0
7.430,2.9130000,-0.2859000,8.8848000,56.5948000,39.0396000,61.3174000,-43.9020000,-10.9600000,-2.3970000,0.000000,0,0,0
7.440,2.9429000,-0.2883000,8.8669000,57.0755000,38.6124000,61.3174000,-43.8690000,-11.2350000,-2.0690000,0.000000,0,0,0
7.450,2.9608000,-0.2871000,8.8418000,57.5867000,38.5132000,61.0886000,-43.4310000,-11.1260000,-2.3600000,0.000000,0,0,0
7.460,2.9680000,-0.2955000,8.8167000,57.8766000,38.4827000,60.8673000,-43.6310000,-11.1110000,-3.0170000,0.000000,0,0,0
7.470,2.9764000,-0.2955000,8.8023000,57.8461000,38.2614000,60.8063000,-43.7630000,-11.3590000,-3.3960000,0.000000,0,0,0
7.480,2.9859000,-0.2907000,8.8071000,57.5867000,37.8799000,60.8444000,-43.7610000,-11.4070000,-3.2990000,0.000000,0,0,0
7.490,3.0027000,-0.2943000,8.8178000,57.3578000,37.3764000,60.9589000,-43.7120000,-11.3070000,-2.7680000,0.000000,0,0,0
7.500,3.0290000,-0.3027000,8.8167000,57.4188000,36.6669000,61.1267000,-43.7750000,-11.4860000,-3.3470000,0.000000,0,0,0
7.510,3.0637000,-0.3086000,8.7987000,57.7316000,35.8505000,61.3022000,-43.8170000,-11.3130000,-3.2980000,0.000000,0,0,0
7.520,3.1127000,-0.3098000,8.7664000,58.0215000,34.9960000,61.4777000,-43.7650000,-11.2810000,-2.9510000,0.000000,0,0,0
7.530,3.1654000,-0.3110000,8.7353000,58.1207000,34.0271000,61.6150000,-43.4540000,-11.1840000,-3.3480000,0.000000,0,0,0
7.540,3.2156000,-0.3086000,8.7209000,57.9529000,32.9895000,61.6913000,-43.9800000,-11.1370000,-3.5720000,0.000000,0,0,0
7.550,3.2539000,-0.3027000,8.7233000,57.6019000,31.8985000,61.7218000,-43.8410000,-11.2650000,-3.3380000,0.000000,0,0,0
7.560,3.2898000,-0.2967000,8.7317000,57.1594000,30.9601000,61.6379000,-43.9110000,-11.5510000,-2.5820000,0.000000,0,0,0
7.570,3.3185000,-0.2859000,8.7353000,56.7017000,30.1971000,61.4548000,-43.9190000,-11.2720000,-2.8450000,0.000000,0,0,0
7.580,3.3544000,-0.2692000,8.7317000,56.1600000,29.5944000,61.2183000,-44.1060000,-11.4660000,-2.9640000,0.000000,0,0,0
7.590,3.3975000,-0.2656000,8.7198000,55.5801000,29.0146000,60.9970000,-44.0470000,-11.3340000,-3.1410000,0.000000,0,0,0
7.600,3.4477000,-0.2716000,8.7030000,55.1453000,28.3585000,60.8139000,-44.1800000,-11.2810000,-3.6120000,0.000000,0,0,0
7.610,3.4979000,-0.2871000,8.6791000,54.9927000,27.6337000,60.5774000,-44.1930000,-11.4390000,-3.9530000,0.000000,0,0,0
7.620,3.5386000,-0.3122000,8.6528000,55.1758000,26.7868000,60.3561000,-44.0220000,-11.2290000,-3.6540000,0.000000,0,0,0
7.630,3.5745000,-0.3385000,8.6276000,55.7175000,25.7950000,60.1730000,-44.2710000,-11.2370000,-3.9820000,0.000000,0,0,0
7.640,3.6020000,-0.3565000,8.6097000,56.4194000,24.8032000,60.0586000,-44.1250000,-11.1040000,-4.1640000,0.000000,0,0,0
7.650,3.6379000,-0.3661000,8.5941000,57.0221000,24.0402000,59.9747000,-44.1490000,-11.3220000,-4.2290000,0.000000,0,0,0
7.660,3.6894000,-0.3720000,8.5774000,57.3654000,23.6816000,59.8145000,-44.4340000,-11.3070000,-3.9650000,0.000000,0,0,0
7.670,3.7492000,-0.3744000,8.5559000,57.3959000,23.6969000,59.4711000,-44.1210000,-11.3300000,-4.4350000,0.000000,0,0,0
7.680,3.8006000,-0.3720000,8.5283000,57.1442000,23.9410000,59.0210000,-44.0920000,-11.4380000,-4.5770000,0.000000,0,0,0
7.690,3.8413000,-0.3613000,8.5008000,56.7703000,24.1394000,58.6166000,-44.1340000,-11.1280000,-4.6140000,0.000000,0,0,0
7.700,3.8700000,-0.3505000,8.4805000,56.4880000,24.1394000,58.3649000,-44.1450000,-11.2690000,-5.2240000,0.000000,0,0,0
7.710,3.8927000,-0.3457000,8.4697000,56.5262000,23.9792000,58.2199000,-44.0260000,-11.3710000,-4.8670000,0.000000,0,0,0
7.720,3.9131000,-0.3529000,8.4625000,56.9534000,23.6435000,58.1741000,-44.4270000,-11.0910000,-5.0200000,0.000000,0,0,0
7.730,3.9394000,-0.3601000,8.4494000,57.6553000,23.0789000,58.2733000,-44.3220000,-10.8710000,-5.0140000,0.000000,0,0,0
7.740,3.9717000,-0.3673000,8.4207000,58.4030000,22.2702000,58.4717000,-44.2800000,-10.9790000,-4.9150000,0.000000,0,0,0
7.750,4.0147000,-0.3708000,8.3704000,58.9142000,21.4615000,58.6395000,-44.0240000,-10.8790000,-5.4640000,0.000000,0,0,0
7.760,4.0626000,-0.3732000,8.3070000,59.0668000,20.9732000,58.6777000,-44.2570000,-11.0060000,-5.8930000,0.000000,0,0,0
7.770,4.1104000,-0.3649000,8.2508000,58.8913000,20.9656000,58.5861000,-44.1730000,-10.9450000,-5.3850000,0.000000,0,0,0
7.780,4.1571000,-0.3469000,8.2113000,58.4106000,21.5302000,58.3954000,-44.2700000,-10.8690000,-5.2080000,0.000000,0,0,0
7.790,4.1978000,-0.3302000,8.1862000,57.6859000,22.6059000,58.1284000,-44.3990000,-10.9190000,-6.2680000,0.000000,0,0,0
7.800,4.2301000,-0.3230000,8.1659000,56.8771000,23.8876000,57.9224000,-44.4260000,-10.9030000,-5.7820000,0.000000,0,0,0
7.810,4.2863000,-0.3362000,8.1324000,55.8472000,25.7797000,57.9605000,-44.3240000,-11.0660000,-5.3410000,0.000000,0,0,0
7.820,4.3234000,-0.3589000,8.1025000,55.6259000,26.7639000,58.1436000,-44.4890000,-10.9440000,-5.8850000,0.000000,0,0,0
7.830,4.3677000,-0.3816000,8.0678000,55.8624000,27.3056000,58.4641000,-44.5540000,-10.9320000,-6.6650000,0.000000,0,0,0
7.840,4.4215000,-0.4020000,8.0259000,56.4651000,27.3132000,58.8913000,-44.5310000,-10.8940000,-6.7150000,0.000000,0,0,0
7.850,4.4693000,-0.4235000,7.9757000,57.2281000,26.7105000,59.4177000,-44.4660000,-10.8800000,-6.8690000,0.000000,0,0,0
7.860,4.5303000,-0.4402000,7.9218000,57.9681000,25.7187000,60.0967000,-44.0470000,-10.9610000,-6.7330000,0.000000,0,0,0
7.870,4.5973000,-0.4366000,7.8728000,58.4793000,24.9329000,60.7071000,-44.3610000,-10.8090000,-7.0610000,0.000000,0,0,0
7.880,4.6464000,-0.4187000,7.8500000,58.7997000,24.7040000,61.0886000,-44.6210000,-11.1140000,-7.4080000,0.000000,0,0,0
7.890,4.6667000,-0.4008000,7.8465000,59.1125000,25.0626000,61.3098000,-44.1850000,-11.1350000,-6.7220000,0.000000,0,0,0
7.900,4.6739000,-0.3804000,7.8441000,59.5856000,25.7874000,61.4166000,-44.3470000,-11.1340000,-7.0810000,0.000000,0,0,0
7.910,4.6859000,-0.3469000,7.8393000,60.1959000,26.6495000,61.3861000,-44.3390000,-11.0380000,-7.2900000,0.000000,0,0,0
7.920,4.7038000,-0.3074000,7.8333000,60.8292000,27.6566000,61.1725000,-44.7080000,-11.1080000,-7.5770000,0.000000,0,0,0
7.930,4.7158000,-0.2668000,7.8345000,61.4395000,28.8391000,60.7986000,-44.6890000,-11.2470000,-7.1600000,0.000000,0,0,0
7.940,4.7265000,-0.2381000,7.8297000,62.0651000,29.8691000,60.4706000,-44.4300000,-11.2510000,-7.9040000,0.000000,0,0,0
7.950,4.7552000,-0.2249000,7.8034000,62.6068000,30.3955000,60.3943000,-44.1870000,-10.9790000,-7.9770000,0.000000,0,0,0
7.960,4.7935000,-0.2201000,7.7699000,62.8357000,30.0598000,60.6155000,-44.4690000,-10.9890000,-8.2020000,0.000000,0,0,0
7.970,4.8210000,-0.2153000,7.7508000,62.5381000,28.8162000,61.0809000,-44.2350000,-10.7680000,-8.3810000,0.000000,0,0,0
7.980,4.8510000,-0.2177000,7.7352000,61.7828000,26.8250000,61.7065000,-44.5330000,-11.0750000,-8.6810000,0.000000,0,0,0
7.990,4.9060000,-0.2201000,7.7053000,60.7376000,24.4751000,62.2940000,-44.5090000,-11.0300000,-8.3330000,0.000000,0,0,0
8.000,4.9730000,-0.2237000,7.6562000,59.6008000,22.4152000,62.6297000,-44.5370000,-10.8480000,-8.4260000,0.000000,0,0,0
8.010,5.0448000,-0.2261000,7.5940000,58.5938000,21.1868000,62.5610000,-44.4770000,-11.0050000,-8.4210000,0.000000,0,0,0
8.020,5.1165000,-0.2189000,7.5306000,57.6706000,21.0190000,62.0651000,-44.0950000,-11.2680000,-8.8430000,0.000000,0,0,0
8.030,5.1799000,-0.2094000,7.4756000,56.7017000,21.8735000,61.2488000,-44.4770000,-11.0400000,-8.7350000,0.000000,0,0,0
8.040,5.2326000,-0.2034000,7.4337000,55.6564000,23.5367000,60.2646000,-44.5450000,-10.7490000,-8.6660000,0.000000,0,0,0
8.050,5.2732000,-0.2094000,7.4038000,54.7943000,25.5661000,59.3109000,-44.2190000,-10.8170000,-8.9170000,0.000000,0,0,0
8.060,5.3008000,-0.2285000,7.3811000,54.2831000,27.4506000,58.5251000,-44.4560000,-10.6970000,-9.2400000,0.000000,0,0,0
8.070,5.3175000,-0.2381000,7.3572000,54.0695000,28.7704000,57.9834000,-44.0760000,-10.9250000,-9.4440000,0.000000,0,0,0
8.080,5.3354000,-0.2309000,7.3297000,53.8406000,29.4189000,57.6324000,-44.3120000,-10.8820000,-10.0800000,0.000000,0,0,0
8.090,5.3522000,-0.2225000,7.3093000,53.5583000,29.6249000,57.3807000,-44.3020000,-10.6630000,-9.5960000,0.000000,0,0,0
8.100,5.3701000,-0.2261000,7.2986000,53.5049000,29.6631000,57.1823000,-44.3700000,-11.1040000,-9.6490000,0.000000,0,0,0
8.110,5.3857000,-0.2381000,7.2962000,53.8864000,29.7394000,56.9000000,-44.5650000,-11.0280000,-10.0500000,0.000000,0,0,0
8.120,5.4000000,-0.2393000,7.2962000,54.6112000,29.9606000,56.5796000,-44.2720000,-10.9420000,-10.2390000,0.000000,0,0,0
8.130,5.4108000,-0.2440000,7.2878000,55.4047000,30.2277000,56.3965000,-44.1200000,-10.7740000,-9.1960000,0.000000,0,0,0
8.140,5.4132000,-0.2644000,7.2531000,56.1295000,30.3650000,56.5109000,-44.2620000,-10.6310000,-9.3680000,0.000000,0,0,0
8.150,5.4156000,-0.2871000,7.1957000,56.7856000,30.4184000,56.9229000,-44.2220000,-10.5040000,-10.1870000,0.000000,0,0,0
8.160,5.4204000,-0.3074000,7.1263000,57.3578000,30.4871000,57.6019000,-44.1590000,-10.3250000,-9.4120000,0.000000,0,0,0
8.170,5.4431000,-0.3194000,7.0593000,57.8537000,30.5099000,58.4946000,-44.1740000,-10.3760000,-10.2870000,0.000000,0,0,0
8.180,5.4910000,-0.3254000,7.0222000,58.2962000,30.3345000,59.4406000,-44.3260000,-10.6510000,-9.9190000,0.000000,0,0,0
8.190,5.5364000,-0.3254000,7.0126000,58.8760000,29.9072000,60.2875000,-44.5020000,-10.6200000,-9.7110000,0.000000,0,0,0
8.200,5.5747000,-0.3242000,7.0115000,59.7610000,29.3732000,61.0123000,-44.4910000,-10.3720000,-10.1010000,0.000000,0,0,0
8.210,5.6118000,-0.3314000,6.9887000,60.9055000,28.8773000,61.5768000,-44.5080000,-10.6470000,-10.4570000,0.000000,0,0,0
8.220,5.6584000,-0.3374000,6.9361000,62.0499000,28.5797000,61.9583000,-44.3860000,-10.6540000,-10.4770000,0.000000,0,0,0
8.230,5.7075000,-0.3385000,6.8751000,62.9349000,28.6789000,62.1414000,-44.4610000,-10.4840000,-10.6950000,0.000000,0,0,0
8.240,5.7506000,-0.3362000,6.8248000,63.4460000,29.1290000,62.1262000,-44.4490000,-10.5820000,-10.4790000,0.000000,0,0,0
8.250,5.7841000,-0.3302000,6.8021000,63.6292000,29.7012000,62.0422000,-44.2250000,-10.5490000,-10.6670000,0.000000,0,0,0
8.260,5.7888000,-0.3242000,6.8105000,63.6673000,29.8996000,62.0651000,-44.5800000,-10.5470000,-10.7800000,0.000000,0,0,0
8.270,5.7841000,-0.3134000,6.8248000,63.7741000,29.3121000,62.3474000,-44.3550000,-10.8320000,-10.7940000,0.000000,0,0,0
8.280,5.7924000,-0.2943000,6.8224000,63.9954000,28.0457000,62.8433000,-44.4800000,-10.5260000,-10.8930000,0.000000,0,0,0
8.290,5.8283000,-0.2740000,6.7889000,64.2014000,26.7029000,63.2858000,-44.1850000,-10.6540000,-11.4550000,0.000000,0,0,0
8.300,5.8869000,-0.2488000,6.7315000,64.1556000,26.2299000,63.3545000,-44.0470000,-10.6370000,-11.2540000,0.000000,0,0,0
8.310,5.9527000,-0.2237000,6.6729000,63.6215000,27.2751000,62.8738000,-44.0940000,-10.6690000,-11.8600000,0.000000,0,0,0
8.320,6.0042000,-0.2070000,6.6262000,62.4847000,29.6555000,62.0499000,-44.3680000,-10.7220000,-11.9510000,0.000000,0,0,0
8.330,6.0245000,-0.2022000,6.6011000,60.9589000,32.6080000,61.2869000,-44.0440000,-10.5990000,-11.5770000,0.000000,0,0,0
8.340,6.0365000,-0.2022000,6.5916000,59.3719000,35.2783000,60.7681000,-44.1080000,-10.6760000,-11.5120000,0.000000,0,0,0
8.350,6.0568000,-0.2082000,6.5951000,57.4036000,37.5290000,60.5240000,-43.8580000,-10.5400000,-11.9160000,0.000000,0,0,0
8.360,6.0748000,-0.2189000,6.6059000,56.7474000,37.8036000,60.6537000,-44.2930000,-10.8270000,-12.0640000,0.000000,0,0,0
8.370,6.1011000,-0.2297000,6.6095000,56.6711000,37.5900000,60.8673000,-44.1830000,-10.9470000,-12.2220000,0.000000,0,0,0
8.380,6.1322000,-0.2417000,6.5975000,56.9534000,37.2314000,61.0504000,-43.9660000,-10.7500000,-12.2340000,0.000000,0,0,0
8.390,6.1621000,-0.2464000,6.5712000,57.2662000,37.0026000,61.1267000,-43.6850000,-10.9070000,-12.4100000,0.000000,0,0,0
8.400,6.1920000,-0.2464000,6.5317000,57.4646000,37.2391000,61.0580000,-43.6890000,-10.5440000,-12.0040000,0.000000,0,0,0
8.410,6.2087000,-0.2464000,6.4875000,57.5027000,38.0783000,60.8292000,-43.6990000,-10.8120000,-12.1700000,0.000000,0,0,0
8.420,6.2099000,-0.2440000,6.4468000,57.3349000,39.4821000,60.5164000,-43.8720000,-10.6070000,-11.9240000,0.000000,0,0,0
8.430,6.1956000,-0.2405000,6.4157000,56.9687000,41.2369000,60.2188000,-43.8630000,-10.6760000,-12.5140000,0.000000,0,0,0
8.440,6.1740000,-0.2452000,6.3918000,56.4804000,42.8543000,60.1120000,-43.6340000,-10.7820000,-12.4760000,0.000000,0,0,0
8.450,6.1705000,-0.2512000,6.3810000,56.0532000,43.8004000,60.2417000,-43.7320000,-10.5940000,-12.8270000,0.000000,0,0,0
8.460,6.1884000,-0.2548000,6.3882000,55.9464000,43.8919000,60.5087000,-43.9130000,-10.7330000,-12.3150000,0.000000,0,0,0
8.470,6.2183000,-0.2596000,6.4085000,56.3583000,43.4189000,60.6918000,-43.7330000,-10.7810000,-12.2960000,0.000000,0,0,0
8.480,6.2446000,-0.2572000,6.4277000,57.2662000,42.7856000,60.6766000,-43.8390000,-10.9390000,-12.1580000,0.000000,0,0,0
8.490,6.2709000,-0.2476000,6.4205000,58.2809000,42.4042000,60.4172000,-43.8410000,-10.8260000,-12.3980000,0.000000,0,0,0
8.500,6.2961000,-0.2381000,6.3810000,58.9218000,42.5568000,59.9899000,-43.9570000,-10.6540000,-12.5910000,0.000000,0,0,0
8.510,6.3104000,-0.2309000,6.3248000,58.9142000,43.2739000,59.5245000,-43.7470000,-10.6380000,-12.3920000,0.000000,0,0,0
8.520,6.3068000,-0.2261000,6.2745000,58.2581000,44.3954000,59.1965000,-43.8980000,-10.2860000,-12.3270000,0.000000,0,0,0
8.530,6.2817000,-0.2213000,6.2482000,57.1747000,45.3949000,59.1888000,-43.7900000,-10.2360000,-12.0770000,0.000000,0,0,0
8.540,6.2626000,-0.2177000,6.2446000,55.9692000,45.7382000,59.6695000,-43.7600000,-10.6800000,-12.7480000,0.000000,0,0,0
8.550,6.2626000,-0.2117000,6.2542000,54.8782000,45.3186000,60.4782000,-43.8300000,-10.6710000,-13.0570000,0.000000,0,0,0
8.560,6.2662000,-0.2058000,6.2674000,54.0543000,44.4946000,61.3632000,-43.9280000,-10.8770000,-12.9060000,0.000000,0,0,0
8.570,6.2841000,-0.2034000,6.2853000,53.6194000,43.7317000,62.1338000,-43.4790000,-10.7270000,-12.9110000,0.000000,0,0,0
8.580,6.3224000,-0.2082000,6.2961000,53.5278000,43.3273000,62.6373000,-43.6960000,-10.7020000,-12.5060000,0.000000,0,0,0
8.590,6.3786000,-0.2165000,6.3032000,53.6041000,43.4036000,62.7060000,-44.0150000,-10.6270000,-13.0980000,0.000000,0,0,0
8.600,6.4301000,-0.2321000,6.3044000,53.6652000,44.0063000,62.3093000,-43.9960000,-10.8150000,-13.1700000,0.000000,0,0,0
8.610,6.4576000,-0.2464000,6.2901000,53.5736000,45.0745000,61.5845000,-43.4190000,-10.7820000,-12.9390000,0.000000,0,0,0
8.620,6.4743000,-0.2644000,6.2458000,53.2532000,46.5393000,60.7605000,-43.9620000,-10.7520000,-13.1440000,0.000000,0,0,0
8.630,6.4875000,-0.2799000,6.1896000,52.6581000,48.2864000,60.0433000,-43.4970000,-10.8460000,-12.5620000,0.000000,0,0,0
8.640,6.4803000,-0.2907000,6.1501000,51.7502000,50.1099000,59.5779000,-43.9330000,-10.7950000,-12.8220000,0.000000,0,0,0
8.650,6.4719000,-0.3051000,6.1310000,50.7278000,51.8417000,59.4025000,-43.7850000,-10.7840000,-14.0160000,0.000000,0,0,0
8.660,6.4683000,-0.3278000,6.1406000,50.0183000,53.3905000,59.3796000,-44.0010000,-10.7280000,-13.0990000,0.000000,0,0,0
8.670,6.4659000,-0.3457000,6.1800000,50.0031000,54.6036000,59.4482000,-43.6110000,-10.7880000,-13.2490000,0.000000,0,0,0
8.680,6.4540000,-0.3529000,6.2446000,50.8194000,55.2292000,59.6466000,-43.5620000,-10.5180000,-13.8580000,0.000000,0,0,0
8.690,6.4289000,-0.3577000,6.3092000,52.2995000,54.7791000,60.0815000,-43.9020000,-10.5630000,-13.2300000,0.000000,0,0,0
8.700,6.4109000,-0.3589000,6.3391000,54.0466000,53.1540000,60.8139000,-43.4900000,-10.4080000,-13.0000000,0.000000,0,0,0
8.710,6.4157000,-0.3433000,6.3367000,55.6259000,50.9491000,61.6226000,-44.0250000,-10.6300000,-12.9270000,0.000000,0,0,0
8.720,6.4253000,-0.3230000,6.3188000,56.7474000,48.9349000,62.2253000,-43.9090000,-10.6860000,-13.0210000,0.000000,0,0,0
8.730,6.4289000,-0.3051000,6.2913000,57.2891000,47.4930000,62.5534000,-43.5840000,-10.5450000,-13.1200000,0.000000,0,0,0
8.740,6.4253000,-0.2907000,6.2578000,57.2739000,46.7148000,62.6678000,-43.8930000,-10.7050000,-13.3740000,0.000000,0,0,0
8.750,6.4265000,-0.2871000,6.2231000,56.8542000,46.4859000,62.6526000,-43.9210000,-10.5390000,-13.3780000,0.000000,0,0,0
8.760,6.4468000,-0.2955000,6.1980000,56.2668000,46.5469000,62.5534000,-43.9670000,-10.4710000,-12.9910000,0.000000,0,0,0
8.770,6.4659000,-0.3110000,6.1896000,55.7175000,46.4859000,62.4542000,-43.8410000,-10.8400000,-13.2510000,0.000000,0,0,0
8.780,6.4815000,-0.3302000,6.1980000,55.3741000,46.1197000,62.4466000,-43.8290000,-10.7570000,-13.6700000,0.000000,0,0,0
8.790,6.4982000,-0.3493000,6.2183000,55.4047000,45.4636000,62.4619000,-43.8620000,-10.5510000,-13.7580000,0.000000,0,0,0
8.800,6.5042000,-0.3601000,6.2434000,55.8319000,44.6472000,62.4695000,-43.8920000,-11.0280000,-13.8180000,0.000000,0,0,0
8.810,6.5102000,-0.3649000,6.2590000,56.5720000,43.7775000,62.4466000,-43.7080000,-10.6770000,-13.7410000,0.000000,0,0,0
8.820,6.5293000,-0.3744000,6.2446000,57.4265000,43.0298000,62.3322000,-43.9420000,-10.7610000,-13.9860000,0.000000,0,0,0
8.830,6.5509000,-0.3804000,6.2063000,58.1741000,42.5797000,62.0651000,-43.7410000,-10.8250000,-13.8980000,0.000000,0,0,0
8.840,6.5593000,-0.3840000,6.1537000,58.6090000,42.5720000,61.7142000,-43.7360000,-10.7630000,-13.4900000,0.000000,0,0,0
8.850,6.5509000,-0.3912000,6.1011000,58.6548000,42.8543000,61.4090000,-43.8110000,-10.6580000,-13.5870000,0.000000,0,0,0
8.860,6.5281000,-0.3924000,6.0568000,58.3725000,43.0679000,61.3098000,-43.5930000,-10.8720000,-14.2150000,0.000000,0,0,0
8.870,6.5102000,-0.3888000,6.0341000,57.9300000,43.0298000,61.4319000,-43.3530000,-10.8810000,-13.9230000,0.000000,0,0,0
8.880,6.5126000,-0.3840000,6.0209000,57.4799000,42.8162000,61.6379000,-43.6730000,-10.8020000,-14.3200000,0.000000,0,0,0
8.890,6.5521000,-0.3708000,6.0006000,56.7703000,42.9001000,61.7294000,-43.4340000,-10.6610000,-14.7340000,0.000000,0,0,0
8.900,6.5652000,-0.3661000,5.9934000,56.3049000,43.4570000,61.5845000,-43.6430000,-10.8640000,-14.4590000,0.000000,0,0,0
8.910,6.5736000,-0.3792000,5.9874000,55.9692000,44.1742000,61.4700000,-43.3810000,-10.6510000,-14.4340000,0.000000,0,0,0
8.920,6.5927000,-0.4031000,5.9683000,55.7480000,44.7617000,61.4929000,-43.6950000,-10.8800000,-14.0360000,0.000000,0,0,0
8.930,6.6155000,-0.4271000,5.9539000,55.6183000,45.2805000,61.5616000,-43.6060000,-10.7690000,-13.7090000,0.000000,0,0,0
8.940,6.6298000,-0.4498000,5.9479000,55.7175000,45.7916000,61.5921000,-43.4020000,-10.8300000,-14.1150000,0.000000,0,0,0
8.950,6.6334000,-0.4618000,5.9539000,56.1752000,46.2723000,61.5768000,-43.5810000,-10.7090000,-13.8330000,0.000000,0,0,0
8.960,6.6274000,-0.4677000,5.9647000,56.9916000,46.5393000,61.5463000,-43.7350000,-10.7560000,-13.8070000,0.000000,0,0,0
8.970,6.6262000,-0.4654000,5.9599000,57.8918000,46.5393000,61.5234000,-43.3910000,-11.0860000,-14.0810000,0.000000,0,0,0
8.980,6.6286000,-0.4558000,5.9396000,58.5403000,46.4096000,61.4929000,-43.7630000,-11.0140000,-14.2990000,0.000000,0,0,0
8.990,6.6394000,-0.4474000,5.9133000,58.7616000,46.3181000,61.4319000,-43.6500000,-11.0220000,-14.1400000,0.000000,0,0,0
9.000,6.6514000,-0.4378000,5.8929000,58.6472000,46.4401000,61.2946000,-43.4450000,-10.7940000,-13.8030000,0.000000,0,0,0
9.010,6.6657000,-0.4331000,5.8822000,58.4030000,46.8445000,61.0886000,-43.5420000,-10.9060000,-14.1410000,0.000000,0,0,0
9.020,6.6813000,-0.4319000,5.8833000,58.1970000,47.4472000,60.8521000,-43.5350000,-10.7190000,-14.6880000,0.000000,0,0,0
9.030,6.6849000,-0.4295000,5.8977000,58.0368000,48.0042000,60.6155000,-43.5240000,-10.6860000,-14.6890000,0.000000,0,0,0
9.040,6.6813000,-0.4295000,5.9085000,57.8995000,48.2407000,60.4782000,-43.5750000,-10.7170000,-14.2840000,0.000000,0,0,0
9.050,6.6789000,-0.4343000,5.9097000,57.7774000,48.0804000,60.4553000,-43.2700000,-10.5820000,-14.6310000,0.000000,0,0,0
9.060,6.6873000,-0.4354000,5.9121000,57.7698000,47.6990000,60.4477000,-43.6990000,-10.5240000,-13.9470000,0.000000,0,0,0
9.070,6.6992000,-0.4331000,5.9204000,57.8766000,47.1954000,60.4401000,-43.4230000,-10.6000000,-13.4690000,0.000000,0,0,0
9.080,6.7052000,-0.4271000,5.9204000,57.9834000,46.7072000,60.4477000,-43.7630000,-10.5020000,-14.1350000,0.000000,0,0,0
9.090,6.7028000,-0.4187000,5.9156000,57.9300000,46.3181000,60.4782000,-43.7050000,-10.6880000,-13.9260000,0.000000,0,0,0
9.100,6.7064000,-0.4139000,5.9001000,57.6935000,45.9137000,60.5927000,-43.7780000,-10.8480000,-13.8260000,0.000000,0,0,0
9.110,6.7219000,-0.4151000,5.8774000,57.3349000,45.4941000,60.7376000,-43.6270000,-10.6180000,-14.4350000,0.000000,0,0,0
9.120,6.7399000,-0.4175000,5.8582000,57.0068000,45.0745000,60.8521000,-43.2330000,-11.0330000,-14.7450000,0.000000,0,0,0
9.130,6.7662000,-0.4175000,5.8367000,56.8466000,44.8608000,60.8749000,-43.4480000,-10.9570000,-14.4320000,0.000000,0,0,0
9.140,6.7877000,-0.4115000,5.8140000,56.9000000,45.1050000,60.6842000,-43.5620000,-10.7550000,-13.9720000,0.000000,0,0,0
9.150,6.7925000,-0.4043000,5.7960000,57.0908000,45.6924000,60.3638000,-43.4510000,-10.7280000,-14.0510000,0.000000,0,0,0
9.160,6.7937000,-0.3972000,5.7697000,57.2433000,46.2799000,60.0891000,-43.4240000,-10.7940000,-14.5800000,0.000000,0,0,0
9.170,6.7973000,-0.3864000,5.7506000,57.2052000,46.6003000,59.9213000,-43.2870000,-10.6140000,-14.4430000,0.000000,0,0,0
9.180,6.8129000,-0.3840000,5.7434000,57.0068000,46.5393000,59.8831000,-43.4700000,-10.9420000,-14.3990000,0.000000,0,0,0
9.190,6.8272000,-0.3876000,5.7565000,56.8466000,46.2265000,59.9060000,-43.3140000,-10.9060000,-14.5440000,0.000000,0,0,0
9.200,6.8368000,-0.3912000,5.7817000,56.8848000,45.9213000,59.9594000,-43.4760000,-10.8690000,-14.8000000,0.000000,0,0,0
9.210,6.8416000,-0.3960000,5.8008000,57.1442000,45.8069000,59.9976000,-43.5100000,-10.6440000,-15.2570000,0.000000,0,0,0
9.220,6.8368000,-0.4031000,5.7948000,57.5104000,45.8832000,60.0662000,-43.5300000,-10.7010000,-15.2820000,0.000000,0,0,0
9.230,6.8308000,-0.4043000,5.7577000,57.7545000,46.1731000,60.1349000,-43.3100000,-10.5930000,-14.7010000,0.000000,0,0,0
9.240,6.8284000,-0.4043000,5.7051000,57.7240000,46.7529000,60.1578000,-43.2570000,-10.9710000,-14.6060000,0.000000,0,0,0
9.250,6.8260000,-0.4103000,5.6596000,57.4341000,47.6151000,60.1501000,-43.2250000,-10.7470000,-14.7690000,0.000000,0,0,0
9.260,6.8153000,-0.4151000,5.6501000,57.1213000,48.5535000,60.1578000,-43.3270000,-10.9570000,-15.0460000,0.000000,0,0,0
9.270,6.7997000,-0.4271000,5.6644000,57.0755000,49.2477000,60.2951000,-43.3010000,-10.7430000,-15.1140000,0.000000,0,0,0
9.280,6.7877000,-0.4354000,5.6752000,57.3807000,49.6063000,60.5392000,-43.2290000,-10.6780000,-15.2120000,0.000000,0,0,0
9.290,6.7865000,-0.4354000,5.6740000,57.8079000,49.6674000,60.8444000,-43.3160000,-10.6930000,-15.0470000,0.000000,0,0,0
9.300,6.7961000,-0.4319000,5.6608000,58.1207000,49.6063000,61.1038000,-43.8700000,-10.9110000,-14.8610000,0.000000,0,0,0
9.310,6.8129000,-0.4247000,5.6429000,58.1665000,49.6750000,61.2183000,-43.0870000,-11.0740000,-14.6430000,0.000000,0,0,0
9.320,6.8332000,-0.4175000,5.6369000,57.9834000,49.9039000,61.1877000,-43.1710000,-10.8190000,-14.9770000,0.000000,0,0,0
9.330,6.8488000,-0.4127000,5.6584000,57.7698000,50.1404000,61.0886000,-43.1280000,-10.8930000,-14.9320000,0.000000,0,0,0
9.340,6.8667000,-0.4199000,5.6788000,57.6630000,50.1251000,61.0199000,-43.4140000,-10.9350000,-15.3030000,0.000000,0,0,0
9.350,6.8846000,-0.4271000,5.6836000,57.6630000,49.9496000,60.9665000,-43.2030000,-10.7580000,-14.9690000,0.000000,0,0,0
9.360,6.9038000,-0.4319000,5.6800000,57.6324000,49.7894000,60.9283000,-43.5510000,-10.9360000,-15.1540000,0.000000,0,0,0
9.370,6.9277000,-0.4414000,5.6824000,57.5104000,49.7665000,60.8521000,-43.1600000,-11.0240000,-15.4210000,0.000000,0,0,0
9.380,6.9504000,-0.4546000,5.6860000,57.4036000,49.9496000,60.7071000,-43.4550000,-11.0070000,-15.3230000,0.000000,0,0,0
9.390,6.9612000,-0.4677000,5.6907000,57.4646000,50.4150000,60.4706000,-43.2770000,-11.0070000,-15.1040000,0.000000,0,0,0
9.400,6.9624000,-0.4773000,5.6943000,57.7469000,51.0025000,60.2188000,-43.3270000,-10.8910000,-14.9130000,0.000000,0,0,0
9.410,6.9600000,-0.4809000,5.6907000,58.1512000,51.4526000,59.9976000,-42.9750000,-10.7740000,-15.4330000,0.000000,0,0,0
9.420,6.9612000,-0.4737000,5.6692000,58.6319000,51.8265000,59.7763000,-43.2700000,-10.5160000,-15.2350000,0.000000,0,0,0
9.430,6.9576000,-0.4618000,5.6704000,58.7311000,52.0325000,59.6542000,-43.3160000,-10.8000000,-15.3010000,0.000000,0,0,0
9.440,6.9421000,-0.4558000,5.6872000,58.7692000,52.1469000,59.6390000,-43.2640000,-10.7120000,-15.2200000,0.000000,0,0,0
9.450,6.9205000,-0.4534000,5.7075000,58.8684000,51.9562000,59.7992000,-43.2390000,-11.0760000,-15.0450000,0.000000,0,0,0
9.460,6.9062000,-0.4486000,5.7051000,59.0286000,51.4755000,60.1120000,-43.4210000,-10.9350000,-14.7740000,0.000000,0,0,0
9.470,6.9038000,-0.4366000,5.6812000,59.1049000,51.0025000,60.4401000,-43.1230000,-10.8730000,-15.3270000,0.000000,0,0,0
9.480,6.9157000,-0.4259000,5.6525000,58.9752000,50.7965000,60.6613000,-43.1800000,-10.9090000,-15.1460000,0.000000,0,0,0
9.490,6.9277000,-0.4211000,5.6357000,58.7006000,50.9262000,60.7300000,-43.4230000,-10.5930000,-14.9530000,0.000000,0,0,0
9.500,6.9265000,-0.4223000,5.6393000,58.4259000,51.1932000,60.7071000,-43.3200000,-10.8550000,-15.2020000,0.000000,0,0,0
9.510,6.9253000,-0.4271000,5.6489000,58.2657000,51.2619000,60.7147000,-43.2020000,-10.8240000,-15.2110000,0.000000,0,0,0
9.520,6.9217000,-0.4295000,5.6561000,58.1818000,51.1093000,60.7376000,-43.3680000,-10.8750000,-14.6360000,0.000000,0,0,0
9.530,6.9169000,-0.4259000,5.6561000,58.1055000,50.9033000,60.7452000,-43.0640000,-10.9140000,-14.8730000,0.000000,0,0,0
9.540,6.9110000,-0.4247000,5.6465000,58.0063000,50.7736000,60.7300000,-43.0850000,-10.6330000,-15.1210000,0.000000,0,0,0
9.550,6.9098000,-0.4307000,5.6285000,57.8537000,50.7278000,60.6995000,-43.2000000,-10.6350000,-14.7920000,0.000000,0,0,0
9.560,6.9110000,-0.4414000,5.6130000,57.6859000,50.8423000,60.6308000,-43.3720000,-11.1300000,-15.1580000,0.000000,0,0,0
9.570,6.9122000,-0.4546000,5.6082000,57.5867000,51.0864000,60.5545000,-43.1610000,-11.1410000,-15.0920000,0.000000,0,0,0
9.580,6.9146000,-0.4606000,5.6130000,57.6172000,51.3077000,60.4935000,-43.1390000,-10.5580000,-15.1350000,0.000000,0,0,0
9.590,6.9193000,-0.4594000,5.6190000,57.7316000,51.3916000,60.4630000,-43.0600000,-11.1120000,-14.8550000,0.000000,0,0,0
9.600,6.9181000,-0.4486000,5.6357000,57.8003000,51.1246000,60.5087000,-43.2780000,-10.9210000,-15.1170000,0.000000,0,0,0
9.610,6.9146000,-0.4354000,5.6525000,57.8537000,50.4227000,60.6689000,-43.0640000,-10.7130000,-15.2520000,0.000000,0,0,0
9.620,6.9193000,-0.4235000,5.6453000,57.8766000,49.4385000,60.8444000,-43.0020000,-11.0380000,-15.0440000,0.000000,0,0,0
9.630,6.9337000,-0.4115000,5.6202000,57.7850000,48.6069000,60.8902000,-43.2300000,-10.7590000,-15.2570000,0.000000,0,0,0
9.640,6.9433000,-0.4079000,5.5855000,57.5638000,48.2483000,60.7605000,-43.3740000,-11.0740000,-15.3350000,0.000000,0,0,0
9.650,6.9516000,-0.4127000,5.5508000,57.2510000,48.3475000,60.5545000,-43.3550000,-10.7680000,-14.5580000,0.000000,0,0,0
9.660,6.9660000,-0.4211000,5.5185000,56.8771000,48.7061000,60.3409000,-43.5990000,-10.9980000,-15.0130000,0.000000,0,0,0
9.670,6.9839000,-0.4307000,5.4993000,56.4804000,49.1104000,60.1654000,-43.5150000,-11.0580000,-15.0400000,0.000000,0,0,0
9.680,6.9959000,-0.4390000,5.5101000,56.1523000,49.2783000,60.1349000,-43.4840000,-10.8330000,-15.6880000,0.000000,0,0,0
9.690,7.0031000,-0.4474000,5.5436000,56.0379000,49.0875000,60.2570000,-42.8230000,-10.7730000,-16.0320000,0.000000,0,0,0
9.700,7.0043000,-0.4534000,5.5604000,56.1981000,48.6374000,60.4630000,-43.3410000,-10.8970000,-16.1370000,0.000000,0,0,0
9.710,7.0019000,-0.4522000,5.5627000,56.5109000,48.3170000,60.6155000,-43.4370000,-10.5780000,-15.2560000,0.000000,0,0,0
9.720,7.0031000,-0.4438000,5.5639000,56.8085000,48.2635000,60.6613000,-43.8140000,-10.7480000,-15.4620000,0.000000,0,0,0
9.730,7.0067000,-0.4366000,5.5604000,57.0068000,48.3704000,60.6308000,-43.3760000,-10.6320000,-15.2310000,0.000000,0,0,0
9.740,7.0150000,-0.4295000,5.5472000,57.0984000,48.6679000,60.5011000,-43.5260000,-10.5590000,-14.5020000,0.000000,0,0,0
9.750,7.0270000,-0.4271000,5.5340000,57.1594000,49.1943000,60.2951000,-43.4580000,-10.5830000,-15.5190000,0.000000,0,0,0
9.760,7.0438000,-0.4307000,5.5245000,57.2433000,49.9649000,59.9899000,-43.6550000,-10.8610000,-15.3990000,0.000000,0,0,0
9.770,7.0521000,-0.4366000,5.5281000,57.3883000,50.9109000,59.6542000,-43.3400000,-10.8810000,-15.0890000,0.000000,0,0,0
9.780,7.0485000,-0.4474000,5.5436000,57.6248000,51.6968000,59.4177000,-43.1830000,-10.8610000,-15.3900000,0.000000,0,0,0
9.790,7.0426000,-0.4546000,5.5592000,57.9376000,51.9791000,59.3796000,-43.0070000,-10.7060000,-15.0510000,0.000000,0,0,0
9.800,7.0294000,-0.4486000,5.5723000,58.2428000,51.7731000,59.5169000,-43.2500000,-10.7210000,-14.8760000,0.000000,0,0,0
9.810,7.0174000,-0.4307000,5.5795000,58.4793000,51.2695000,59.7534000,-43.0030000,-11.0400000,-15.2600000,0.000000,0,0,0
9.820,7.0138000,-0.4079000,5.5723000,58.5403000,50.7355000,59.9594000,-43.0020000,-10.5210000,-15.3050000,0.000000,0,0,0
9.830,7.0174000,-0.3864000,5.5532000,58.3801000,50.4532000,60.0739000,-43.1380000,-10.7440000,-15.1110000,0.000000,0,0,0
9.840,7.0318000,-0.3732000,5.5316000,58.0139000,50.6134000,60.0815000,-43.2860000,-10.8340000,-15.0390000,0.000000,0,0,0
9.850,7.0497000,-0.3697000,5.5221000,57.5104000,51.2238000,59.9899000,-43.2030000,-10.6870000,-15.6310000,0.000000,0,0,0
9.860,7.0557000,-0.3744000,5.5304000,57.0679000,52.0020000,59.8755000,-43.5250000,-10.5870000,-15.5560000,0.000000,0,0,0
9.870,7.0497000,-0.3852000,5.5508000,56.9229000,52.5436000,59.8373000,-43.1590000,-10.6220000,-15.5130000,0.000000,0,0,0
9.880,7.0282000,-0.3936000,5.5639000,57.0526000,52.6962000,59.8755000,-43.1380000,-10.7510000,-15.3790000,0.000000,0,0,0
9.890,6.9887000,-0.3936000,5.5651000,57.3959000,52.4673000,60.0357000,-43.2220000,-10.6560000,-15.4970000,0.000000,0,0,0
9.900,6.9540000,-0.3912000,5.5364000,57.7164000,51.8494000,60.3104000,-43.3890000,-11.1900000,-15.4250000,0.000000,0,0,0
9.910,6.9349000,-0.3768000,5.4969000,57.6782000,51.0941000,60.5850000,-43.3880000,-10.7290000,-16.0730000,0.000000,0,0,0
9.920,6.9349000,-0.3673000,5.4646000,57.2662000,50.5524000,60.7376000,-43.0410000,-10.8040000,-15.8810000,0.000000,0,0,0
9.930,6.9433000,-0.3708000,5.4503000,56.7703000,50.3616000,60.7147000,-43.2220000,-10.7210000,-15.8610000,0.000000,0,0,0
9.940,6.9516000,-0.3840000,5.4575000,56.4957000,50.4379000,60.6003000,-43.2170000,-10.9160000,-16.4510000,0.000000,0,0,0
9.950,6.9516000,-0.4043000,5.4766000,56.5720000,50.4913000,60.5316000,-43.0450000,-10.9090000,-16.4020000,0.000000,0,0,0
9.960,6.9361000,-0.4319000,5.4766000,57.1594000,50.2930000,60.7071000,-43.3420000,-10.9210000,-16.3180000,0.000000,0,0,0
9.970,6.9253000,-0.4331000,5.4539000,57.5333000,50.0946000,60.9055000,-43.2610000,-10.7740000,-16.3260000,0.000000,0,0,0
9.980,6.9301000,-0.4307000,5.4144000,57.6630000,49.9802000,61.0504000,-43.2090000,-10.8290000,-15.1910000,0.000000,0,0,0
9.990,6.9469000,-0.4283000,5.3713000,57.5562000,50.1709000,60.9665000,-43.2250000,-10.4860000,-15.7300000,0.000000,0,0,0
10.000,6.9648000,-0.4307000,5.3498000,57.3196000,50.7278000,60.6689000,-43.2590000,-10.7000000,-15.3870000,0.000000,0,0,0
10.010,6.9803000,-0.4426000,5.3486000,57.0908000,51.3458000,60.3027000,-43.2750000,-10.5650000,-15.7610000,0.000000,0,0,0
10.020,6.9971000,-0.4582000,5.3689000,56.9611000,51.5976000,59.9976000,-43.3300000,-10.7630000,-15.0150000,0.000000,0,0,0
10.030,7.0115000,-0.4773000,5.4036000,56.9763000,51.3382000,59.8373000,-42.9610000,-10.5600000,-15.8760000,0.000000,0,0,0
10.040,7.0186000,-0.4881000,5.4419000,57.1136000,50.7050000,59.7305000,-43.2610000,-10.9380000,-15.3640000,0.000000,0,0,0
10.050,7.0246000,-0.4821000,5.4718000,57.2586000,49.9573000,59.5856000,-43.2330000,-11.1350000,-15.4300000,0.000000,0,0,0
10.060,7.0378000,-0.4594000,5.4874000,57.3044000,49.4385000,59.3033000,-43.3430000,-10.8560000,-15.7630000,0.000000,0,0,0
10.070,7.0581000,-0.4366000,5.4922000,57.2205000,49.3240000,58.8837000,-43.2550000,-10.6680000,-16.0050000,0.000000,0,0,0
10.080,7.0784000,-0.4211000,5.4886000,57.0450000,49.5605000,58.3801000,-43.2770000,-11.0480000,-15.5890000,0.000000,0,0,0
10.090,7.0928000,-0.4115000,5.4766000,56.7932000,50.0565000,57.8384000,-43.4000000,-10.5760000,-15.5990000,0.000000,0,0,0
10.100,7.0964000,-0.4103000,5.4635000,56.5338000,50.7889000,57.3349000,-43.3190000,-10.8460000,-15.6770000,0.000000,0,0,0
10.110,7.0880000,-0.4067000,5.4575000,56.4041000,51.5518000,57.0450000,-42.9770000,-10.7760000,-15.7660000,0.000000,0,0,0
10.120,7.0808000,-0.4091000,5.4527000,56.5262000,51.9867000,57.0908000,-43.1370000,-10.5330000,-15.2840000,0.000000,0,0,0
10.130,7.0880000,-0.4103000,5.4419000,56.8771000,51.9562000,57.4341000,-43.1050000,-11.0760000,-15.7610000,0.000000,0,0,0
10.140,7.1024000,-0.4008000,5.4276000,57.2205000,51.6434000,57.8995000,-43.0900000,-10.6960000,-15.7120000,0.000000,0,0,0
10.150,7.1167000,-0.3876000,5.4108000,57.3959000,51.2848000,58.3496000,-43.2390000,-10.5060000,-15.9440000,0.000000,0,0,0
10.160,7.1311000,-0.3804000,5.3869000,57.3654000,51.0864000,58.7311000,-42.9400000,-10.3650000,-15.7110000,0.000000,0,0,0
10.170,7.1454000,-0.3780000,5.3713000,57.2510000,51.2085000,58.9752000,-43.1290000,-10.5250000,-15.8610000,0.000000,0,0,0
10.180,7.1526000,-0.3876000,5.3654000,57.2510000,51.6129000,59.1202000,-42.9930000,-10.1440000,-16.4970000,0.000000,0,0,0
10.190,7.1502000,-0.4020000,5.3582000,57.4570000,52.1698000,59.2194000,-42.9800000,-10.3110000,-15.8540000,0.000000,0,0,0
10.200,7.1335000,-0.4151000,5.3438000,57.7774000,52.8030000,59.3109000,-43.0050000,-10.6590000,-16.3630000,0.000000,0,0,0
10.210,7.1083000,-0.4211000,5.3247000,58.0978000,53.4592000,59.4482000,-43.2220000,-10.5400000,-17.0010000,0.000000,0,0,0
10.220,7.0820000,-0.4163000,5.3079000,58.2809000,54.1611000,59.6237000,-42.9800000,-10.5360000,-16.6790000,0.000000,0,0,0
10.230,7.0557000,-0.4103000,5.3043000,58.2275000,54.8630000,59.8373000,-43.2220000,-10.5050000,-16.7400000,0.000000,0,0,0
10.240,7.0306000,-0.4067000,5.3163000,57.9681000,55.4810000,60.0815000,-43.4400000,-10.5650000,-16.0140000,0.000000,0,0,0
10.250,7.0091000,-0.3984000,5.3462000,57.5638000,55.9311000,60.3714000,-43.0760000,-10.3290000,-16.0860000,0.000000,0,0,0
10.260,6.9995000,-0.3948000,5.3881000,57.1442000,56.0608000,60.7071000,-43.1130000,-10.5250000,-16.0400000,0.000000,0,0,0
10.270,7.0055000,-0.3960000,5.4276000,56.8237000,55.8701000,61.0275000,-42.9780000,-10.2950000,-16.2830000,0.000000,0,0,0
10.280,7.0186000,-0.4008000,5.4646000,56.6788000,55.5496000,61.2335000,-43.7160000,-10.3040000,-16.4160000,0.000000,0,0,0
10.290,7.0366000,-0.4079000,5.4850000,56.7551000,55.3055000,61.2717000,-43.3610000,-10.4940000,-16.4470000,0.000000,0,0,0
10.300,7.0509000,-0.4199000,5.4874000,56.9763000,55.1987000,61.1725000,-43.3100000,-10.5920000,-16.6980000,0.000000,0,0,0
10.310,7.0593000,-0.4295000,5.4814000,57.2357000,55.1910000,61.0123000,-43.2540000,-10.4850000,-15.9060000,0.000000,0,0,0
10.320,7.0641000,-0.4354000,5.4790000,57.5180000,55.2826000,60.8444000,-43.2370000,-10.6490000,-15.8990000,0.000000,0,0,0
10.330,7.0677000,-0.4462000,5.4766000,57.8156000,55.4352000,60.6918000,-43.2750000,-10.7440000,-16.5260000,0.000000,0,0,0
10.340,7.0677000,-0.4510000,5.4718000,58.0978000,55.5725000,60.5774000,-42.8750000,-10.5880000,-16.8900000,0.000000,0,0,0
10.350,7.0557000,-0.4486000,5.4718000,58.4106000,55.6107000,60.5316000,-43.1170000,-10.7140000,-15.8420000,0.000000,0,0,0
10.360,7.0378000,-0.4390000,5.4670000,58.7463000,55.4581000,60.5621000,-43.1840000,-10.4300000,-16.2140000,0.000000,0,0,0
10.370,7.0210000,-0.4187000,5.4455000,58.9523000,55.1071000,60.6537000,-42.7940000,-10.8580000,-16.1200000,0.000000,0,0,0
10.380,7.0115000,-0.3936000,5.4192000,58.8684000,54.7180000,60.7300000,-43.1970000,-10.8310000,-15.6010000,0.000000,0,0,0
10.390,7.0126000,-0.3744000,5.3953000,58.5098000,54.4586000,60.7452000,-43.2910000,-10.7530000,-15.7730000,0.000000,0,0,0
10.400,7.0222000,-0.3708000,5.3857000,58.0750000,54.4968000,60.6384000,-43.2980000,-10.9620000,-16.4180000,0.000000,0,0,0
10.410,7.0294000,-0.3804000,5.3977000,57.7545000,54.8248000,60.4324000,-42.9850000,-10.8620000,-16.0340000,0.000000,0,0,0
10.420,7.0330000,-0.3984000,5.4228000,57.6706000,55.2521000,60.2188000,-43.5010000,-10.4310000,-15.7720000,0.000000,0,0,0
10.430,7.0330000,-0.4139000,5.4467000,57.8003000,55.5573000,60.0739000,-43.2980000,-10.9980000,-16.0830000,0.000000,0,0,0
10.440,7.0342000,-0.4235000,5.4623000,58.0521000,55.6488000,60.0204000,-43.5460000,-10.4340000,-15.8810000,0.000000,0,0,0
10.450,7.0330000,-0.4211000,5.4670000,58.2809000,55.6259000,60.0204000,-43.5990000,-10.5750000,-15.2500000,0.000000,0,0,0
10.460,7.0306000,-0.4115000,5.4623000,58.4183000,55.7098000,59.9899000,-43.4750000,-10.4910000,-15.6700000,0.000000,0,0,0
10.470,7.0246000,-0.3984000,5.4575000,58.4412000,56.0989000,59.8984000,-43.3170000,-10.6710000,-15.4980000,0.000000,0,0,0
10.480,7.0126000,-0.3876000,5.4575000,58.4106000,56.8695000,59.7839000,-43.5240000,-10.5280000,-15.9110000,0.000000,0,0,0
10.490,6.9947000,-0.3840000,5.4551000,58.3115000,58.5785000,59.6848000,-43.2870000,-10.3040000,-15.7930000,0.000000,0,0,0
10.500,6.9875000,-0.3888000,5.4539000,58.0902000,59.7305000,59.7610000,-43.3260000,-10.4210000,-15.0280000,0.000000,0,0,0
10.510,6.9815000,-0.3924000,5.4635000,57.6935000,60.5927000,59.9670000,-43.2090000,-10.7500000,-15.6550000,0.000000,0,0,0
10.520,6.9827000,-0.3936000,5.4838000,57.2281000,61.1877000,60.2188000,-43.2540000,-10.6300000,-15.2380000,0.000000,0,0,0
10.530,6.9875000,-0.3948000,5.5185000,56.8542000,61.5387000,60.4019000,-43.5030000,-10.5930000,-15.2590000,0.000000,0,0,0
10.540,6.9911000,-0.3960000,5.5532000,56.6559000,61.5845000,60.5087000,-43.5000000,-10.6850000,-15.1320000,0.000000,0,0,0
10.550,6.9971000,-0.3984000,5.5723000,56.7245000,61.5845000,60.4935000,-43.3110000,-10.2490000,-15.5660000,0.000000,0,0,0
10.560,6.9971000,-0.4020000,5.5795000,57.0221000,61.9431000,60.2417000,-43.1060000,-10.4600000,-15.2150000,0.000000,0,0,0
10.570,6.9995000,-0.4091000,5.5771000,57.4493000,62.8357000,59.8221000,-43.5320000,-10.3920000,-15.9600000,0.000000,0,0,0
10.580,7.0103000,-0.4271000,5.5807000,57.9376000,64.3387000,59.2880000,-43.6390000,-10.4550000,-15.1350000,0.000000,0,0,0
10.590,7.0103000,-0.4462000,5.6166000,58.5251000,66.3376000,58.6395000,-43.3580000,-10.4540000,-15.3060000,0.000000,0,0,0
10.600,6.9983000,-0.4498000,5.6991000,59.3262000,68.4433000,57.9987000,-43.5660000,-10.7140000,-15.2120000,0.000000,0,0,0
10.610,6.9792000,-0.4510000,5.7829000,60.4935000,70.0150000,57.4951000,-43.8070000,-10.6970000,-14.7900000,0.000000,0,0,0
10.620,6.9445000,-0.4319000,5.8487000,61.8820000,70.6711000,57.1594000,-43.5600000,-10.5570000,-15.3980000,0.000000,0,0,0
10.630,6.9062000,-0.3876000,5.8774000,63.0875000,70.5490000,57.0221000,-43.5100000,-10.3930000,-15.0010000,0.000000,0,0,0
10.640,6.8775000,-0.3385000,5.8606000,63.6673000,70.0989000,56.9916000,-43.9130000,-10.6670000,-15.2910000,0.000000,0,0,0
10.650,6.8500000,-0.2979000,5.8259000,63.4384000,69.8395000,56.9992000,-43.6230000,-10.4460000,-14.2880000,0.000000,0,0,0
10.660,6.8236000,-0.2716000,5.7984000,62.5687000,70.1752000,57.0450000,-43.7140000,-10.4230000,-15.0760000,0.000000,0,0,0
10.670,6.8105000,-0.2596000,5.7876000,61.3327000,71.3348000,57.0755000,-43.6240000,-10.2250000,-14.6110000,0.000000,0,0,0
10.680,6.8021000,-0.2560000,5.8020000,60.1120000,73.2727000,56.9839000,-43.7350000,-10.2080000,-13.8630000,0.000000,0,0,0
10.690,6.7865000,-0.2620000,5.8355000,59.2804000,75.7370000,56.7932000,-43.7460000,-10.2330000,-14.2680000,0.000000,0,0,0
10.700,6.7602000,-0.2728000,5.8774000,58.9676000,78.2623000,56.6177000,-44.2320000,-10.5050000,-14.0250000,0.000000,0,0,0
10.710,6.7016000,-0.2847000,5.9300000,59.1507000,80.2231000,56.6483000,-43.8240000,-10.4110000,-14.0070000,0.000000,0,0,0
10.720,6.6334000,-0.2919000,5.9767000,59.6924000,81.0089000,57.0984000,-43.6760000,-10.4070000,-13.2240000,0.000000,0,0,0
10.730,6.5748000,-0.2895000,5.9982000,60.2722000,80.5435000,57.9071000,-43.9010000,-10.4090000,-14.1080000,0.000000,0,0,0
10.740,6.5258000,-0.2787000,5.9898000,60.5392000,79.3457000,58.8684000,-44.0250000,-10.3760000,-13.8530000,0.000000,0,0,0
10.750,6.4887000,-0.2632000,5.9647000,60.3180000,78.1937000,59.8373000,-44.0430000,-10.2870000,-13.8450000,0.000000,0,0,0
10.760,6.4671000,-0.2500000,5.9408000,59.5932000,77.8732000,60.5927000,-44.1270000,-10.2900000,-13.6160000,0.000000,0,0,0
